time,seconds_elapsed,z,y,x
1784821985802968600,0.077968505859375,0.24704265594482422,0.01670551300048828,-0.0028416812419891357
1784821985812968000,0.087968017578125,0.0006208419799804688,-0.024321556091308594,-0.06903831660747528
1784821985822967800,0.0979677734375,-0.10449504852294922,-0.03909635543823242,-0.15909866988658905
1784821985832968000,0.107968017578125,-0.152099609375,0.017864704132080078,-0.20350509881973267
1784821985842967800,0.1179677734375,-0.1661396026611328,-0.0042591094970703125,-0.2189597189426422
1784821985852968000,0.127968017578125,-0.22562217712402344,0.011825084686279297,-0.13824191689491272
1784821985862967800,0.1379677734375,-0.24588298797607422,0.0015807151794433594,-0.004125267267227173
1784821985872968000,0.147968017578125,-0.12564468383789062,0.023698806762695312,0.030937552452087402
1784821985882967800,0.1579677734375,-0.0065746307373046875,0.023691654205322266,0.03513970971107483
1784821985892968000,0.167968017578125,-0.02724170684814453,0.0011324882507324219,0.08454686403274536
1784821985902967800,0.1779677734375,-0.04798698425292969,-0.03322029113769531,0.11406943202018738
1784821985912968700,0.18796875,-0.003993988037109375,-0.012614250183105469,0.16935163736343384
1784821985922968800,0.19796875,0.06625556945800781,-0.04929304122924805,0.262224406003952
1784821985932968700,0.20796875,0.12697792053222656,-0.05973529815673828,0.21689048409461975
1784821985942968800,0.21796875,0.08044815063476562,-0.03267240524291992,0.04291543364524841
1784821985952968700,0.22796875,-0.06355953216552734,0.014917850494384766,-0.06965748965740204
1784821985962968800,0.23796875,-0.25008106231689453,0.03537273406982422,-0.12205415964126587
1784821985972968700,0.24796875,-0.30762434005737305,0.013321876525878906,-0.20950230956077576
1784821985982968800,0.25796875,-0.2705402374267578,-0.006869316101074219,-0.20171192288398743
1784821985992968700,0.26796875,-0.27788257598876953,-0.044042110443115234,-0.16335617005825043
1784821986002968800,0.27796875,-0.2982606887817383,-0.0698847770690918,-0.1278695911169052
1784821986012968000,0.287968017578125,-0.27649402618408203,-0.0056247711181640625,-0.11805559694766998
1784821986022967800,0.2979677734375,-0.35855865478515625,-0.01648998260498047,-0.029549360275268555
1784821986032968000,0.307968017578125,-0.3719930648803711,0.0005311965942382812,0.11583468317985535
1784821986042967800,0.3179677734375,-0.1970386505126953,-0.019109249114990234,0.3234042525291443
1784821986052968000,0.327968017578125,-0.001544952392578125,-0.11569356918334961,0.4047986567020416
1784821986062967800,0.3379677734375,0.1593618392944336,-0.059545040130615234,0.24692991375923157
1784821986072968000,0.347968017578125,0.3410778045654297,-0.014335155487060547,0.09572365880012512
1784821986082967800,0.3579677734375,0.41768550872802734,0.006144523620605469,0.0036521553993225098
1784821986092968000,0.367968017578125,0.44956398010253906,-0.08246088027954102,-0.009559333324432373
1784821986102968300,0.37796826171875,0.3699312210083008,-0.1009817123413086,0.04845619201660156
1784821986112969000,0.387968994140625,0.27503204345703125,-0.1320033073425293,0.02729088068008423
1784821986122968800,0.39796875,0.27440738677978516,-0.12138700485229492,0.028570175170898438
1784821986132969000,0.407968994140625,0.2456798553466797,-0.08550310134887695,0.04829663038253784
1784821986142968800,0.41796875,0.20077800750732422,-0.048802852630615234,0.07413220405578613
1784821986152969000,0.427968994140625,0.11826419830322266,-0.05641746520996094,0.08666566014289856
1784821986162968800,0.43796875,0.03173065185546875,-0.09899568557739258,0.05942431092262268
1784821986172969000,0.447968994140625,-0.03501319885253906,-0.10389041900634766,0.004260510206222534
1784821986182968800,0.45796875,0.037077903747558594,-0.04137420654296875,-0.08203187584877014
1784821986192969000,0.467968994140625,0.09438419342041016,-0.060202598571777344,-0.08098381757736206
1784821986202968800,0.47796875,0.07970046997070312,-0.11676454544067383,-0.029236406087875366
1784821986212968000,0.487968017578125,0.01013946533203125,-0.1041402816772461,-0.06669643521308899
1784821986222968000,0.497968017578125,-0.061065673828125,-0.09746074676513672,-0.11031749844551086
1784821986232968000,0.507968017578125,-0.08397197723388672,-0.08652210235595703,-0.12031272053718567
1784821986242968000,0.517968017578125,-0.08824729919433594,-0.07941770553588867,-0.1164236068725586
1784821986252968000,0.527968017578125,-0.07170581817626953,-0.05200481414794922,-0.1370212733745575
1784821986262968000,0.537968017578125,-0.060654640197753906,-0.030664920806884766,-0.09827616810798645
1784821986272968000,0.547968017578125,-0.10738945007324219,-0.025482654571533203,-0.05473610758781433
1784821986282968000,0.557968017578125,-0.20218944549560547,-0.04382610321044922,-0.03595954179763794
1784821986292968000,0.567968017578125,-0.21339702606201172,-0.06406450271606445,-0.037948787212371826
1784821986302968000,0.577968017578125,-0.21089553833007812,-0.07096147537231445,-0.040129274129867554
1784821986312969000,0.587968994140625,-0.21886157989501953,-0.11437273025512695,-0.03058341145515442
1784821986322968800,0.59796875,-0.1319417953491211,-0.09377861022949219,0.05343407392501831
1784821986332969000,0.607968994140625,-0.06509208679199219,-0.07149457931518555,0.07786256074905396
1784821986342968800,0.61796875,-0.051158905029296875,-0.008076667785644531,0.05574685335159302
1784821986352969000,0.627968994140625,-0.030260086059570312,0.07966756820678711,-0.06080502271652222
1784821986362968800,0.63796875,-0.03826427459716797,0.06235027313232422,-0.12536095082759857
1784821986372969000,0.647968994140625,-0.0869293212890625,-0.0004467964172363281,-0.10344314575195312
1784821986382968800,0.65796875,-0.22400474548339844,-0.0681447982788086,-0.030489027500152588
1784821986392969000,0.667968994140625,-0.32288074493408203,-0.1066446304321289,0.10452327132225037
1784821986402968800,0.67796875,-0.3268442153930664,-0.11466741561889648,0.23624897003173828
1784821986412968000,0.687968017578125,-0.2988748550415039,-0.10281848907470703,0.288341224193573
1784821986422968000,0.697968017578125,-0.2797832489013672,-0.12833309173583984,0.23034238815307617
1784821986432968000,0.707968017578125,-0.10889911651611328,-0.10064983367919922,0.23698431253433228
1784821986442968000,0.717968017578125,0.0012445449829101562,-0.06385278701782227,0.26769664883613586
1784821986452968000,0.727968017578125,0.08056831359863281,0.015125751495361328,0.29719898104667664
1784821986462968000,0.737968017578125,0.0837240219116211,0.09318685531616211,0.16246530413627625
1784821986472968000,0.747968017578125,0.09213638305664062,0.13443326950073242,0.037466734647750854
1784821986482968000,0.757968017578125,0.03394794464111328,0.057709693908691406,-0.053857773542404175
1784821986492968000,0.767968017578125,0.004969596862792969,0.004288673400878906,-0.012525200843811035
1784821986502968000,0.777968017578125,-0.009429931640625,-0.06349372863769531,0.13336971402168274
1784821986512969000,0.787968994140625,-0.004462242126464844,-0.14802026748657227,0.2251388281583786
1784821986522968800,0.79796875,0.048317909240722656,-0.20560932159423828,0.21729369461536407
1784821986532969000,0.807968994140625,0.024431228637695312,-0.25544214248657227,0.14056889712810516
1784821986542968800,0.81796875,-0.0067119598388671875,-0.27837610244750977,-0.13071860373020172
1784821986552969000,0.827968994140625,0.031391143798828125,-0.25266170501708984,-0.3132166564464569
1784821986562968800,0.83796875,0.07896995544433594,-0.24308300018310547,-0.3666028380393982
1784821986572969000,0.847968994140625,0.06197071075439453,-0.20684003829956055,-0.3564852178096771
1784821986582968800,0.85796875,0.3591499328613281,-0.19051074981689453,-0.26269248127937317
1784821986592969000,0.867968994140625,0.5729799270629883,-0.17719411849975586,-0.2087162435054779
1784821986602968800,0.87796875,0.6632528305053711,-0.14648675918579102,-0.12457016110420227
1784821986612968000,0.887968017578125,0.7051258087158203,-0.1220247745513916,-0.02666691690683365
1784821986622968000,0.897968017578125,0.7204351425170898,-0.1452627182006836,-0.030299201607704163
1784821986632968000,0.907968017578125,0.6899919509887695,-0.14200472831726074,-0.0663006454706192
1784821986642968000,0.917968017578125,0.6521854400634766,-0.16518235206604004,-0.09026172757148743
1784821986652968000,0.927968017578125,0.64996337890625,-0.20493817329406738,-0.10294760763645172
1784821986662968000,0.937968017578125,0.5474967956542969,-0.2771623134613037,-0.12612608075141907
1784821986672968000,0.947968017578125,0.4517078399658203,-0.2962758541107178,-0.22404775023460388
1784821986682968000,0.957968017578125,0.31429576873779297,-0.26854372024536133,-0.37560194730758667
1784821986692968000,0.967968017578125,0.18267250061035156,-0.25510549545288086,-0.44004830718040466
1784821986702968000,0.977968017578125,0.025522232055664062,-0.23631858825683594,-0.32770219445228577
1784821986712969000,0.987968994140625,-0.05251312255859375,-0.24884676933288574,-0.20022103190422058
1784821986722968800,0.99796875,-0.09258651733398438,-0.22460436820983887,-0.13480857014656067
1784821986732969000,1.007968994140625,-0.1619405746459961,-0.12960004806518555,-0.031212449073791504
1784821986742968800,1.01796875,-0.1644306182861328,-0.08923482894897461,-0.00013122707605361938
1784821986752968700,1.02796875,-0.10031890869140625,-0.03111410140991211,-0.016502365469932556
1784821986762968800,1.03796875,-0.05585765838623047,0.025729656219482422,0.027876511216163635
1784821986772968700,1.04796875,-0.004450798034667969,0.06871986389160156,0.13075192272663116
1784821986782968800,1.05796875,0.051583290100097656,0.08092713356018066,0.19413580000400543
1784821986792968700,1.06796875,-0.002552032470703125,0.062077999114990234,0.2649410367012024
1784821986802968800,1.07796875,-0.0013475418090820312,0.05938243865966797,0.26359087228775024
1784821986812968000,1.087968017578125,-0.1651153564453125,-0.0036611557006835938,0.16102993488311768
1784821986822967800,1.0979677734375,-0.26204586029052734,-0.04227733612060547,0.07438136637210846
1784821986832968000,1.107968017578125,-0.2732696533203125,-0.08935761451721191,0.02807985246181488
1784821986842967800,1.1179677734375,-0.27329540252685547,-0.08920645713806152,0.025129258632659912
1784821986852968000,1.127968017578125,-0.1932220458984375,-0.11490464210510254,-0.040298767387866974
1784821986862967800,1.1379677734375,-0.19778060913085938,-0.07888984680175781,-0.06861409544944763
1784821986872968000,1.147968017578125,-0.19580554962158203,-0.08212637901306152,-0.11971008032560349
1784821986882967800,1.1579677734375,-0.1872568130493164,-0.06718015670776367,-0.1379793882369995
1784821986892968000,1.167968017578125,-0.1721048355102539,-0.06521224975585938,-0.04529467970132828
1784821986902967800,1.1779677734375,-0.06660270690917969,-0.06888484954833984,0.06191021203994751
1784821986912968700,1.18796875,0.0767822265625,-0.13138127326965332,0.15177109837532043
1784821986922968800,1.19796875,0.24622058868408203,-0.0974431037902832,0.17304719984531403
1784821986932968700,1.20796875,0.2959718704223633,-0.08747434616088867,0.16873028874397278
1784821986942968800,1.21796875,0.2912445068359375,-0.10277795791625977,0.0904633104801178
1784821986952968700,1.22796875,0.29459381103515625,-0.09859919548034668,0.031846657395362854
1784821986962969000,1.237968994140625,0.23643112182617188,-0.12724089622497559,-0.02912592887878418
1784821986972969200,1.24796923828125,0.1790008544921875,-0.1384434700012207,-0.06582549214363098
1784821986982969000,1.257968994140625,0.08626556396484375,-0.15108633041381836,-0.08748809248209
1784821986992969200,1.26796923828125,0.0250244140625,-0.14304661750793457,-0.11150617897510529
1784821987002969000,1.277968994140625,-0.03359031677246094,-0.1259315013885498,-0.09577691555023193
1784821987012968400,1.287968505859375,-0.06827449798583984,-0.12072372436523438,-0.014153406023979187
1784821987022968300,1.29796826171875,-0.04567432403564453,-0.11742544174194336,0.051582664251327515
1784821987032968400,1.307968505859375,-0.04745292663574219,-0.11307978630065918,0.04755714535713196
1784821987042968300,1.31796826171875,0.13482189178466797,-0.08173084259033203,0.04708045721054077
1784821987052968400,1.327968505859375,0.18544960021972656,-0.038561344146728516,0.024677202105522156
1784821987062968600,1.337968505859375,0.16702747344970703,-0.027426958084106445,0.043349385261535645
1784821987072968400,1.347968505859375,0.16841411590576172,-0.05376291275024414,0.06229636073112488
1784821987082968600,1.357968505859375,0.12247276306152344,-0.0430753231048584,0.04207286238670349
1784821987092968400,1.367968505859375,0.03651714324951172,-0.06271672248840332,0.026043951511383057
1784821987102968600,1.377968505859375,0.03720664978027344,-0.0642704963684082,0.024131983518600464
1784821987112969500,1.387969482421875,-0.005116462707519531,-0.06601428985595703,0.06998641788959503
1784821987122969300,1.39796923828125,0.0074920654296875,-0.08418488502502441,0.11570896208286285
1784821987132969500,1.407969482421875,0.03903007507324219,-0.06591343879699707,0.13023367524147034
1784821987142969300,1.41796923828125,0.09683799743652344,-0.057086944580078125,0.09036298096179962
1784821987152969500,1.427969482421875,0.10196304321289062,-0.05307173728942871,-0.015509113669395447
1784821987162969300,1.43796923828125,0.05710029602050781,-0.056972503662109375,-0.04844677448272705
1784821987172969500,1.447969482421875,0.0124359130859375,-0.049391984939575195,-0.0617961585521698
1784821987182969300,1.45796923828125,-0.046398162841796875,-0.07339286804199219,-0.04168364405632019
1784821987192969500,1.467969482421875,-0.09569931030273438,-0.07335805892944336,-0.011567100882530212
1784821987202969300,1.47796923828125,-0.15232181549072266,-0.04669356346130371,-0.04060490429401398
1784821987212968400,1.487968505859375,-0.11565303802490234,-0.022208452224731445,-0.11313289403915405
1784821987222968600,1.497968505859375,-0.045772552490234375,-0.028064727783203125,-0.057686321437358856
1784821987232968400,1.507968505859375,0.02379608154296875,-0.037914276123046875,-0.02298712730407715
1784821987242968600,1.517968505859375,0.026042938232421875,-0.06862401962280273,-0.02223433554172516
1784821987252968400,1.527968505859375,0.044983863830566406,-0.04416251182556152,-0.12317724525928497
1784821987262968000,1.537968017578125,0.025659561157226562,-0.06050252914428711,-0.1068890243768692
1784821987272968200,1.54796826171875,0.05681610107421875,-0.046132564544677734,0.032590314745903015
1784821987282968000,1.557968017578125,0.1337270736694336,-0.05153250694274902,0.07128989696502686
1784821987293498600,1.56849853515625,0.17936325073242188,-0.02794051170349121,0.04264664649963379
1784821987303498500,1.57849853515625,0.18907642364501953,-0.006850719451904297,0.002698451280593872
1784821987313499400,1.58849951171875,0.14450740814208984,0.007574558258056641,-0.02441832423210144
1784821987323499300,1.598499267578125,0.08148670196533203,-0.034613847732543945,-0.02998298406600952
1784821987333499400,1.60849951171875,0.0021944046020507812,-0.04435539245605469,0.001107737421989441
1784821987343499300,1.618499267578125,-0.03864479064941406,-0.07358145713806152,-0.03967207670211792
1784821987353499400,1.62849951171875,-0.1084127426147461,-0.0568540096282959,-0.0371103435754776
1784821987363499300,1.638499267578125,-0.1567668914794922,-0.06371712684631348,-0.011350676417350769
1784821987373499400,1.64849951171875,-0.14074993133544922,-0.04830455780029297,0.040937140583992004
1784821987383499300,1.658499267578125,-0.07964134216308594,-0.022318363189697266,0.08704173564910889
1784821987393499400,1.66849951171875,-0.028510093688964844,-0.00020003318786621094,0.07616013288497925
1784821987403499300,1.678499267578125,-0.013613700866699219,0.03455829620361328,0.10058854520320892
1784821987413498400,1.688498291015625,0.015482902526855469,0.03375959396362305,0.19044089317321777
1784821987423498500,1.69849853515625,0.061287879943847656,-0.01960015296936035,0.14622771739959717
1784821987433498400,1.708498291015625,0.078338623046875,-0.039363861083984375,0.05865626037120819
1784821987443498500,1.71849853515625,0.00215911865234375,-0.05228829383850098,-0.036087289452552795
1784821987453498400,1.728498291015625,-0.061631202697753906,-0.06138348579406738,-0.10220760107040405
1784821987463498500,1.73849853515625,-0.07747745513916016,-0.07778096199035645,-0.10180675983428955
1784821987473498400,1.748498291015625,-0.06247711181640625,-0.05996108055114746,-0.05450448393821716
1784821987483498500,1.75849853515625,-0.0023069381713867188,-0.07729101181030273,-0.03634285926818848
1784821987493498400,1.768498291015625,0.07912921905517578,-0.05089282989501953,0.006315544247627258
1784821987503498500,1.77849853515625,0.13654136657714844,-0.010009288787841797,0.009748071432113647
1784821987513499400,1.78849951171875,0.14620590209960938,-0.0006761550903320312,0.015315860509872437
1784821987523499300,1.798499267578125,0.1609935760498047,0.015046834945678711,0.03319346904754639
1784821987533499400,1.80849951171875,0.14277935028076172,-0.015870094299316406,0.033378615975379944
1784821987543499500,1.81849951171875,0.08446979522705078,-0.04097485542297363,0.013683214783668518
1784821987553499400,1.82849951171875,-0.0067882537841796875,-0.043445587158203125,-0.006127104163169861
1784821987563499500,1.83849951171875,-0.0786600112915039,-0.020152568817138672,-0.06576763093471527
1784821987573499400,1.84849951171875,-0.1314229965209961,-0.056618690490722656,-0.09159853309392929
1784821987583499300,1.858499267578125,-0.17000865936279297,-0.04233741760253906,-0.09402619302272797
1784821987593499400,1.86849951171875,-0.20888328552246094,-0.056035518646240234,-0.07410196214914322
1784821987603499300,1.878499267578125,-0.13803768157958984,-0.056761980056762695,-0.040855154395103455
1784821987613498600,1.88849853515625,-0.04429340362548828,-0.01678776741027832,0.06925350427627563
1784821987623498500,1.89849853515625,0.03459358215332031,-0.04990553855895996,0.18656370043754578
1784821987633498600,1.90849853515625,0.11815357208251953,-0.03733253479003906,0.13269370794296265
1784821987643498500,1.91849853515625,0.10606002807617188,0.01563739776611328,0.11564363539218903
1784821987653498600,1.92849853515625,0.06091022491455078,0.04839634895324707,0.11520801484584808
1784821987663498500,1.93849853515625,0.006548881530761719,0.003711223602294922,0.07873502373695374
1784821987673498600,1.94849853515625,-0.05009746551513672,-0.012488365173339844,0.03736059367656708
1784821987683498500,1.95849853515625,-0.09724140167236328,-0.03330087661743164,-0.04000905156135559
1784821987693498600,1.96849853515625,-0.14685535430908203,-0.03954792022705078,-0.05557706952095032
1784821987703498500,1.97849853515625,-0.16315841674804688,-0.04052114486694336,-0.07618264853954315
1784821987713499400,1.98849951171875,-0.11044597625732422,-0.03335428237915039,-0.0656052827835083
1784821987723499300,1.998499267578125,-0.010395050048828125,-0.013001203536987305,-0.011334747076034546
1784821987733499400,2.00849951171875,0.1178903579711914,0.0036780834197998047,0.1272372603416443
1784821987743499300,2.018499267578125,0.2342090606689453,0.003560304641723633,0.17055581510066986
1784821987753499400,2.02849951171875,0.28853893280029297,0.00758671760559082,0.08310562372207642
1784821987763499300,2.038499267578125,0.23636722564697266,0.008739709854125977,0.03455723822116852
1784821987773499400,2.04849951171875,0.09418678283691406,-0.023436784744262695,-0.047952502965927124
1784821987783499300,2.058499267578125,-0.04971790313720703,-0.05710864067077637,-0.14065365493297577
1784821987793499400,2.06849951171875,-0.19344234466552734,-0.09355759620666504,-0.16674159467220306
1784821987803499300,2.078499267578125,-0.25618553161621094,-0.0979006290435791,-0.14521656930446625
1784821987813498600,2.08849853515625,-0.2287588119506836,-0.07643818855285645,-0.08077515661716461
1784821987823498500,2.09849853515625,-0.1280345916748047,-0.05526924133300781,0.05799233913421631
1784821987833498400,2.108498291015625,-0.09021472930908203,-0.015837669372558594,0.06255313754081726
1784821987843498500,2.11849853515625,-0.06938648223876953,0.0025823116302490234,-0.00482003390789032
1784821987853498400,2.128498291015625,-0.07026195526123047,0.01898789405822754,-0.0415000319480896
1784821987863498500,2.13849853515625,-0.06404972076416016,0.03086066246032715,-0.03817695379257202
1784821987873498400,2.148498291015625,-0.0269012451171875,0.016858577728271484,0.0004367232322692871
1784821987883498500,2.15849853515625,0.04839324951171875,-0.006345510482788086,0.1013886034488678
1784821987893498400,2.168498291015625,0.09478473663330078,-0.026834964752197266,0.11277861893177032
1784821987903498500,2.17849853515625,0.10530662536621094,0.03385782241821289,0.10241459310054779
1784821987913499400,2.18849951171875,0.12093925476074219,0.005176544189453125,0.05243217945098877
1784821987923499300,2.198499267578125,0.07726287841796875,-0.027106046676635742,-0.005447894334793091
1784821987933499400,2.20849951171875,-0.006745338439941406,-0.07933950424194336,-0.059702709317207336
1784821987943499300,2.218499267578125,-0.08807945251464844,-0.08431839942932129,-0.12128844112157822
1784821987953499400,2.22849951171875,-0.10492610931396484,-0.08655476570129395,-0.08696355670690536
1784821987963499300,2.238499267578125,-0.09107208251953125,-0.08304119110107422,-0.04280352592468262
1784821987973499400,2.24849951171875,-0.0896139144897461,-0.0546112060546875,0.01820237934589386
1784821987983499300,2.258499267578125,-0.035762786865234375,-0.032698631286621094,-0.019346579909324646
1784821987993499400,2.26849951171875,-0.02768993377685547,-0.019655466079711914,-0.02659749984741211
1784821988003499300,2.278499267578125,-0.010106086730957031,-0.011202335357666016,0.017990559339523315
1784821988013498400,2.288498291015625,0.004974365234375,-0.021637678146362305,0.07444573938846588
1784821988023498500,2.29849853515625,0.10609626770019531,-0.01977849006652832,0.10028687119483948
1784821988033498600,2.30849853515625,0.1401357650756836,-0.02982044219970703,0.11728109419345856
1784821988043498500,2.31849853515625,0.11476993560791016,-0.0002238750457763672,0.06531192362308502
1784821988053498600,2.32849853515625,0.08043384552001953,0.03035593032836914,-0.010399818420410156
1784821988063498500,2.33849853515625,0.07533454895019531,-0.009699821472167969,-0.06162285804748535
1784821988073498600,2.34849853515625,0.09672260284423828,-0.05727362632751465,-0.06038132309913635
1784821988083498500,2.35849853515625,0.010616302490234375,-0.08382081985473633,-0.03134067356586456
1784821988093498600,2.36849853515625,-0.036904335021972656,-0.0750877857208252,-0.01703493297100067
1784821988103498500,2.37849853515625,-0.022281646728515625,-0.05653738975524902,-0.0599956214427948
1784821988113499400,2.38849951171875,0.011150360107421875,-0.05155348777770996,-0.021540150046348572
1784821988123499300,2.398499267578125,0.0011739730834960938,-0.0242917537689209,-0.021569520235061646
1784821988133499400,2.40849951171875,-0.008784294128417969,-0.01861405372619629,0.009449586272239685
1784821988143499300,2.418499267578125,-0.011463165283203125,0.013173103332519531,0.0525483638048172
1784821988153499400,2.42849951171875,-0.04034614562988281,-0.015187978744506836,0.0594194233417511
1784821988163499300,2.438499267578125,-0.004549980163574219,-0.005325794219970703,0.051946669816970825
1784821988173499400,2.44849951171875,0.012117385864257812,0.021231651306152344,0.035081252455711365
1784821988183499300,2.458499267578125,0.09574317932128906,0.009664535522460938,0.09955936670303345
1784821988193499400,2.46849951171875,0.17455101013183594,-0.0018391609191894531,0.15941067039966583
1784821988203499300,2.478499267578125,0.18890953063964844,0.0029449462890625,0.09521074593067169
1784821988213498600,2.48849853515625,0.15838336944580078,0.011040449142456055,-0.051410675048828125
1784821988223498500,2.49849853515625,0.0279541015625,-0.01832437515258789,-0.11122537404298782
1784821988233498600,2.50849853515625,-0.11842823028564453,-0.04714369773864746,-0.2431134581565857
1784821988243498500,2.51849853515625,-0.2649717330932617,-0.06121230125427246,-0.24579760432243347
1784821988253498600,2.52849853515625,-0.3354158401489258,-0.07401800155639648,-0.2139022797346115
1784821988263498500,2.53849853515625,-0.32761287689208984,-0.07543540000915527,-0.05384652316570282
1784821988273498600,2.54849853515625,-0.22506141662597656,-0.07442712783813477,0.061751365661621094
1784821988283498500,2.55849853515625,-0.09471416473388672,-0.018619537353515625,0.10370559990406036
1784821988293498600,2.56849853515625,0.10681533813476562,0.06020545959472656,0.1294563114643097
1784821988303498500,2.57849853515625,0.20757484436035156,0.05096936225891113,0.10922420024871826
1784821988313499400,2.58849951171875,0.20818233489990234,0.01926422119140625,0.07209888100624084
1784821988323499300,2.598499267578125,0.18314647674560547,0.02422046661376953,0.002232581377029419
1784821988333499400,2.60849951171875,0.10843467712402344,-0.010552406311035156,-0.0025386661291122437
1784821988343499300,2.618499267578125,-0.0040988922119140625,-0.07997369766235352,0.011875361204147339
1784821988353499400,2.62849951171875,-0.1068124771118164,-0.08528947830200195,0.01136288046836853
1784821988363499300,2.638499267578125,-0.1735544204711914,-0.0931403636932373,-0.048782870173454285
1784821988373499400,2.64849951171875,-0.2262716293334961,-0.0786585807800293,-0.07065752148628235
1784821988383499300,2.658499267578125,-0.2677888870239258,-0.07907605171203613,-0.09618227928876877
1784821988393499400,2.66849951171875,-0.29572296142578125,-0.044118642807006836,-0.15588299930095673
1784821988403499300,2.678499267578125,-0.2382822036743164,-0.026372194290161133,-0.11804712563753128
1784821988413498400,2.688498291015625,-0.0045757293701171875,-0.004065513610839844,0.07217969000339508
1784821988423498500,2.69849853515625,0.2236785888671875,-0.013718605041503906,0.24606867134571075
1784821988433498400,2.708498291015625,0.4398508071899414,0.027085304260253906,0.25445669889450073
1784821988443498500,2.71849853515625,0.5633754730224609,0.06128287315368652,0.1982659548521042
1784821988453498400,2.728498291015625,0.5160226821899414,0.0296630859375,0.11635896563529968
1784821988463498500,2.73849853515625,0.39377498626708984,-0.025141239166259766,0.005181789398193359
1784821988473498400,2.748498291015625,0.20131397247314453,-0.08850359916687012,-0.10892441868782043
1784821988483498500,2.75849853515625,-0.02601337432861328,-0.10648298263549805,-0.1720859557390213
1784821988493498400,2.768498291015625,-0.18111324310302734,-0.10868144035339355,-0.17920367419719696
1784821988503498500,2.77849853515625,-0.1782398223876953,-0.1155552864074707,-0.1766173094511032
1784821988513499400,2.78849951171875,-0.3385000228881836,-0.07607555389404297,-0.003229483962059021
1784821988523499300,2.798499267578125,-0.2601327896118164,-0.03941035270690918,0.03630727529525757
1784821988533499400,2.80849951171875,-0.16649341583251953,-0.00883030891418457,0.03715600073337555
1784821988543499300,2.818499267578125,-0.0711355209350586,0.030488014221191406,-0.026179060339927673
1784821988553499400,2.82849951171875,-0.012146949768066406,0.06128716468811035,-0.005403459072113037
1784821988563499300,2.838499267578125,0.044281959533691406,0.03263235092163086,0.07492175698280334
1784821988573499400,2.84849951171875,0.09363460540771484,0.03485822677612305,0.10968567430973053
1784821988583499300,2.858499267578125,0.0786447525024414,0.02200794219970703,0.0704539567232132
1784821988593499400,2.86849951171875,0.004220008850097656,-0.006189107894897461,0.055062636733055115
1784821988603499300,2.878499267578125,0.018707275390625,-0.030365467071533203,0.0037843436002731323
1784821988613498400,2.888498291015625,0.05713653564453125,-0.011456489562988281,0.03655366599559784
1784821988623498500,2.89849853515625,0.11702156066894531,-0.056986093521118164,0.06714177131652832
1784821988633498400,2.908498291015625,0.16255855560302734,-0.042752742767333984,0.06511874496936798
1784821988643498500,2.91849853515625,0.18436527252197266,-0.02191901206970215,-0.021459922194480896
1784821988653498400,2.928498291015625,0.13231945037841797,-0.006789207458496094,-0.0614694207906723
1784821988663498500,2.93849853515625,0.025794029235839844,-0.04569292068481445,-0.12565292418003082
1784821988673498400,2.948498291015625,-0.0778665542602539,-0.04492759704589844,-0.1766093522310257
1784821988683498500,2.95849853515625,-0.15262413024902344,-0.05163264274597168,-0.12918052077293396
1784821988693498400,2.968498291015625,-0.21091461181640625,-0.021704912185668945,-0.0799887478351593
1784821988703498500,2.97849853515625,-0.20977497100830078,-0.0314478874206543,-0.021976560354232788
1784821988713499400,2.98849951171875,-0.16609764099121094,-0.0039424896240234375,0.006734058260917664
1784821988723499300,2.998499267578125,-0.15163421630859375,0.017507314682006836,-0.01014496386051178
1784821988733499400,3.00849951171875,-0.06825065612792969,-0.005353689193725586,-0.0003740936517715454
1784821988753499400,3.02849951171875,0.10709285736083984,0.027782678604125977,0.09988060593605042
1784821988763499300,3.038499267578125,0.1611166000366211,0.020618200302124023,0.04277588427066803
1784821988773499400,3.04849951171875,0.13168811798095703,0.014969110488891602,0.04206657409667969
1784821988783499500,3.05849951171875,0.09328746795654297,0.04141974449157715,0.03449168801307678
1784821988793499400,3.06849951171875,0.033822059631347656,-0.017022371292114258,0.023797571659088135
1784821988803499500,3.07849951171875,-0.030104637145996094,-0.05940866470336914,0.019291937351226807
1784821988813498600,3.08849853515625,-0.08913516998291016,-0.03501605987548828,0.01967567205429077
1784821988823498500,3.09849853515625,-0.1267385482788086,-0.08216428756713867,-0.0039588212966918945
1784821988833498400,3.108498291015625,-0.07616901397705078,-0.061295270919799805,-0.05661232769489288
1784821988843498500,3.11849853515625,-0.013897895812988281,-0.042147159576416016,-0.03353548049926758
1784821988853498400,3.128498291015625,0.03629016876220703,-0.0203402042388916,-0.0009303390979766846
1784821988863498500,3.13849853515625,0.05049610137939453,0.023136615753173828,-0.03702397644519806
1784821988873498400,3.148498291015625,0.10058116912841797,0.025917768478393555,-0.016675099730491638
1784821988883498500,3.15849853515625,0.13878536224365234,0.02129817008972168,0.0612725168466568
1784821988893498400,3.168498291015625,0.10796737670898438,0.008555173873901367,0.05757790803909302
1784821988903498500,3.17849853515625,-0.03718090057373047,0.006407022476196289,0.015561938285827637
1784821988923499300,3.198499267578125,-0.16132831573486328,-0.028751134872436523,-0.06020122766494751
1784821988933499400,3.20849951171875,-0.14851951599121094,-0.06900405883789062,-0.038669705390930176
1784821988943499300,3.218499267578125,-0.1434783935546875,-0.06958746910095215,-0.017228126525878906
1784821988953499400,3.22849951171875,-0.1436634063720703,-0.06915068626403809,-0.017385289072990417
1784821988963499300,3.238499267578125,0.07359123229980469,-0.03896617889404297,0.05650965869426727
1784821988973499400,3.24849951171875,0.11348438262939453,-0.03466296195983887,0.05358332395553589
1784821988983499300,3.258499267578125,0.15111827850341797,0.0171811580657959,-0.025492385029792786
1784821988993499400,3.26849951171875,0.10797882080078125,0.03876614570617676,-0.05770313739776611
1784821989003499300,3.278499267578125,0.053290367126464844,0.023459434509277344,-0.03259842097759247
1784821989013498400,3.288498291015625,-0.0034275054931640625,0.012115240097045898,0.035227447748184204
1784821989023498500,3.29849853515625,-0.09579086303710938,0.01214456558227539,0.04270188510417938
1784821989033498400,3.308498291015625,-0.10433673858642578,-0.014187812805175781,0.040245503187179565
1784821989043498500,3.31849853515625,-0.10354423522949219,0.0007042884826660156,0.01690255105495453
1784821989053498400,3.328498291015625,-0.10309791564941406,-0.00759434700012207,-0.055752068758010864
1784821989063498500,3.33849853515625,-0.08628368377685547,0.00414729118347168,-0.09675604850053787
1784821989073498400,3.348498291015625,-0.06977367401123047,-0.019290924072265625,-0.10249021649360657
1784821989083498500,3.35849853515625,-0.0678720474243164,-0.06604909896850586,-0.05188341438770294
1784821989093498400,3.368498291015625,-0.0279083251953125,-0.04038739204406738,-0.04013487696647644
1784821989103498500,3.37849853515625,0.04541778564453125,-0.004786968231201172,0.06514100730419159
1784821989113499400,3.38849951171875,0.10186195373535156,0.007180213928222656,0.1723475307226181
1784821989123499300,3.398499267578125,0.14404010772705078,0.002155780792236328,0.17661774158477783
1784821989133499400,3.40849951171875,0.14581012725830078,0.010796070098876953,0.05678059160709381
1784821989143499300,3.418499267578125,0.1362323760986328,-0.0011916160583496094,-0.012255743145942688
1784821989153499400,3.42849951171875,0.07216453552246094,-0.04803943634033203,-0.0167263001203537
1784821989163499300,3.438499267578125,0.0275726318359375,-0.0597376823425293,-0.06631284952163696
1784821989173499400,3.44849951171875,-0.014514923095703125,-0.031015634536743164,-0.04354175925254822
1784821989183499300,3.458499267578125,-0.013591766357421875,-0.045194387435913086,-0.013501286506652832
1784821989193499400,3.46849951171875,0.0015535354614257812,-0.044677019119262695,0.011800110340118408
1784821989203499300,3.478499267578125,-0.02638530731201172,-0.025007009506225586,0.05582696199417114
1784821989213498400,3.488498291015625,-0.042235374450683594,0.03989362716674805,0.01578807830810547
1784821989223498500,3.49849853515625,-0.09630489349365234,0.04474639892578125,0.025783702731132507
1784821989233498400,3.508498291015625,-0.13602924346923828,0.03532695770263672,0.08752922713756561
1784821989243498500,3.51849853515625,-0.1401195526123047,-0.021318435668945312,0.14425358176231384
1784821989253498400,3.528498291015625,-0.1447277069091797,-0.024114608764648438,0.07692600786685944
1784821989263498500,3.53849853515625,-0.1164083480834961,0.012698173522949219,-0.08719452470541
1784821989273498600,3.54849853515625,-0.004782676696777344,0.03861069679260254,-0.1710265725851059
1784821989283498500,3.55849853515625,0.15451908111572266,0.055515289306640625,-0.09140059351921082
1784821989293498600,3.56849853515625,0.26616954803466797,-0.002091646194458008,0.014217033982276917
1784821989303498500,3.57849853515625,0.27793407440185547,-0.027753353118896484,0.098780557513237
1784821989313499400,3.58849951171875,0.28560733795166016,0.038207292556762695,0.054526105523109436
1784821989323499300,3.598499267578125,0.28698062896728516,0.03505563735961914,0.054008424282073975
1784821989333499400,3.60849951171875,0.19367122650146484,-0.0662534236907959,-0.011193454265594482
1784821989343499300,3.618499267578125,0.18265533447265625,-0.1598680019378662,-0.06977590918540955
1784821989353499400,3.62849951171875,0.16722965240478516,-0.2159280776977539,-0.17559249699115753
1784821989363499300,3.638499267578125,0.21148395538330078,-0.22370672225952148,-0.30225685238838196
1784821989373499400,3.64849951171875,0.26958560943603516,-0.19679713249206543,-0.3849606513977051
1784821989383499300,3.658499267578125,0.3773813247680664,-0.2020421028137207,-0.3624897301197052
1784821989393499400,3.66849951171875,0.4512443542480469,-0.17270660400390625,-0.17633001506328583
1784821989403499300,3.678499267578125,0.5613698959350586,-0.14156889915466309,0.01633220911026001
1784821989413498400,3.688498291015625,0.5286273956298828,-0.10008883476257324,-0.022538572549819946
1784821989423498500,3.69849853515625,0.3536195755004883,0.01487278938293457,-0.09441620111465454
1784821989433498400,3.708498291015625,0.17113876342773438,0.1443626880645752,-0.1910932958126068
1784821989443498500,3.71849853515625,-0.05718994140625,0.18820405006408691,-0.1854880154132843
1784821989453498400,3.728498291015625,0.3117084503173828,0.23953771591186523,-0.3731144368648529
1784821989463498500,3.73849853515625,-0.07036113739013672,0.40433788299560547,0.17133760452270508
1784821989473498400,3.748498291015625,-0.4806652069091797,0.4899425506591797,0.5614659190177917
1784821989483498500,3.75849853515625,-0.7926845550537109,0.3749241828918457,0.5576019287109375
1784821989493498400,3.768498291015625,-1.1184420585632324,0.3761773109436035,0.4835042357444763
1784821989503498500,3.77849853515625,-1.2943158149719238,0.4110269546508789,0.3023611307144165
1784821989513499400,3.78849951171875,-1.475083827972412,0.44883298873901367,0.17884927988052368
1784821989523499300,3.798499267578125,-1.4730291366577148,0.41060543060302734,0.05682259798049927
1784821989533499400,3.80849951171875,-1.3252644538879395,0.3967161178588867,-0.01111292839050293
1784821989543499300,3.818499267578125,-1.024470329284668,0.4094395637512207,0.0040375590324401855
1784821989553499400,3.82849951171875,-0.6457977294921875,0.32906150817871094,0.018119364976882935
1784821989563499300,3.838499267578125,-0.37829113006591797,0.3139457702636719,-0.044978439807891846
1784821989573499400,3.84849951171875,-0.0661020278930664,0.38543176651000977,-0.2591691017150879
1784821989583499300,3.858499267578125,0.1202688217163086,0.3338308334350586,-0.30986374616622925
1784821989593499400,3.86849951171875,0.22741031646728516,0.22353744506835938,-0.18786467611789703
1784821989603499300,3.878499267578125,0.37638187408447266,0.288374662399292,-0.12742385268211365
1784821989613498400,3.888498291015625,0.4128150939941406,0.4272346496582031,-0.10895487666130066
1784821989623498500,3.89849853515625,0.30552005767822266,0.48174333572387695,-0.05531373620033264
1784821989633498400,3.908498291015625,0.05872344970703125,0.529672384262085,-0.07131004333496094
1784821989643498500,3.91849853515625,-0.19157695770263672,0.5193812847137451,-0.2691977024078369
1784821989653498400,3.928498291015625,-0.32651329040527344,0.5631589889526367,-0.4609718918800354
1784821989663498500,3.93849853515625,-0.3922719955444336,0.5623071193695068,-0.511320173740387
1784821989673498400,3.948498291015625,-0.35558128356933594,0.469895601272583,-0.382697731256485
1784821989683498500,3.95849853515625,-0.2622537612915039,0.4952821731567383,-0.3191034495830536
1784821989693498400,3.968498291015625,-0.09099483489990234,0.4905550479888916,-0.29462680220603943
1784821989703498500,3.97849853515625,0.11500740051269531,0.46527528762817383,-0.3607734739780426
1784821989713499400,3.98849951171875,0.4897031784057617,0.4508969783782959,-0.5258442163467407
1784821989723499300,3.998499267578125,0.7626857757568359,0.39662647247314453,-0.5140430331230164
1784821989733499400,4.00849951171875,0.7602968215942383,0.3115224838256836,-0.42075127363204956
1784821989743499300,4.018499267578125,0.6370401382446289,0.3120090961456299,-0.3340059816837311
1784821989753499400,4.02849951171875,0.4948415756225586,0.3941185474395752,-0.32287630438804626
1784821989763499300,4.038499267578125,0.3423576354980469,0.43361854553222656,-0.22741511464118958
1784821989773499100,4.0484990234375,0.33273983001708984,0.4595470428466797,-0.21070456504821777
1784821989783499300,4.058499267578125,0.21413707733154297,0.530815839767456,0.04934871196746826
1784821989793499100,4.0684990234375,0.36150360107421875,0.4369850158691406,0.018163293600082397
1784821989803499300,4.078499267578125,0.35285091400146484,0.4621117115020752,0.01926533877849579
1784821989813498400,4.088498291015625,0.690821647644043,0.15635132789611816,-0.2490880936384201
1784821989823498200,4.098498291015625,0.7412662506103516,0.09090375900268555,-0.43327248096466064
1784821989833498400,4.108498291015625,0.7368402481079102,0.05393362045288086,-0.6396442651748657
1784821989843498200,4.118498291015625,0.6946544647216797,0.027816057205200195,-0.7631515860557556
1784821989853498400,4.128498291015625,0.7321414947509766,0.0818488597869873,-0.8306034803390503
1784821989863498200,4.138498291015625,1.0307979583740234,0.08803939819335938,-0.8067028522491455
1784821989873498400,4.148498291015625,1.3194332122802734,0.023627758026123047,-0.5911532640457153
1784821989883498200,4.158498291015625,1.3755903244018555,-0.05736851692199707,-0.3307204246520996
1784821989893498400,4.168498291015625,1.2530097961425781,-0.08183026313781738,-0.22793807089328766
1784821989903498200,4.178498291015625,1.0610713958740234,-0.016005277633666992,-0.21181222796440125
1784821989913499100,4.1884990234375,0.9448633193969727,-0.13885784149169922,-0.0014884471893310547
1784821989923499000,4.1984990234375,1.0788164138793945,-0.25514674186706543,0.07411965727806091
1784821989933499100,4.2084990234375,1.2908143997192383,-0.26970672607421875,0.13168329000473022
1784821989943499000,4.2184990234375,1.4141960144042969,-0.23539066314697266,0.10103699564933777
1784821989953499100,4.2284990234375,1.3781976699829102,-0.2102978229522705,-0.01078447699546814
1784821989963499000,4.2384990234375,1.1763172149658203,-0.2057793140411377,0.08585968613624573
1784821989973499100,4.2484990234375,0.6074151992797852,-0.21101593971252441,0.36767181754112244
1784821989983499000,4.2584990234375,0.09383010864257812,-0.2948775291442871,0.5469887256622314
1784821989993499100,4.2684990234375,-0.2700023651123047,-0.39766359329223633,0.4859355688095093
1784821990003499000,4.2784990234375,-0.3953876495361328,-0.4459381103515625,0.09602528810501099
1784821990013498400,4.288498291015625,-0.1466817855834961,-0.5407719612121582,-0.35299089550971985
1784821990023498200,4.298498291015625,0.34056854248046875,-0.6894938945770264,-0.6909876465797424
1784821990033498400,4.308498291015625,0.8251609802246094,-0.8045978546142578,-0.8912220597267151
1784821990043498200,4.318498291015625,1.2788410186767578,-0.8106787204742432,-1.1339333057403564
1784821990053498400,4.328498291015625,1.6073427200317383,-0.7041864395141602,-1.2169666290283203
1784821990063498200,4.338498291015625,1.521738052368164,-0.5995869636535645,-0.980620265007019
1784821990073498400,4.348498291015625,1.216416358947754,-0.5752787590026855,-0.5871866941452026
1784821990083498500,4.35849853515625,0.8418359756469727,-0.6336643695831299,-0.14268431067466736
1784821990093498400,4.368498291015625,0.6119499206542969,-0.6466270685195923,0.3739111125469208
1784821990103498500,4.37849853515625,0.6877841949462891,-0.6304517984390259,0.774757444858551
1784821990113499400,4.38849951171875,0.8548040390014648,-0.5692044496536255,0.9017950892448425
1784821990123499300,4.398499267578125,1.1288013458251953,-0.6545774936676025,0.6166599988937378
1784821990133499400,4.40849951171875,1.2915267944335938,-0.6743952035903931,-0.007811754941940308
1784821990143499300,4.418499267578125,1.1210317611694336,-0.555548906326294,-0.5429307818412781
1784821990153499400,4.42849951171875,0.9417848587036133,-0.32363903522491455,-0.8021591901779175
1784821990163499300,4.438499267578125,0.5393886566162109,-0.3120032548904419,-0.7097890973091125
1784821990173499400,4.44849951171875,0.1391592025756836,-0.34816503524780273,-0.4278196692466736
1784821990183499300,4.458499267578125,-0.0009746551513671875,-0.31437087059020996,-0.25713202357292175
1784821990193499400,4.46849951171875,0.06999778747558594,-0.25409746170043945,0.028035417199134827
1784821990203499300,4.478499267578125,0.33001232147216797,-0.08635616302490234,0.29987162351608276
1784821990213498400,4.488498291015625,0.6279640197753906,-0.05168116092681885,0.3579210042953491
1784821990223498500,4.49849853515625,0.7801094055175781,-0.022095084190368652,0.23988208174705505
1784821990233498400,4.508498291015625,0.8657331466674805,0.019813060760498047,0.09575188159942627
1784821990243498500,4.51849853515625,0.7389068603515625,0.06585550308227539,-0.1357157975435257
1784821990253498400,4.528498291015625,0.5266399383544922,0.06509816646575928,-0.3114016652107239
1784821990263498500,4.53849853515625,0.24082660675048828,0.032366156578063965,-0.3366858959197998
1784821990273498400,4.548498291015625,0.08949089050292969,-0.021010756492614746,-0.41721606254577637
1784821990283498500,4.55849853515625,0.1009359359741211,-0.04227852821350098,-0.586813747882843
1784821990293498400,4.568498291015625,0.22713565826416016,-0.030575275421142578,-0.6779367923736572
1784821990303498500,4.57849853515625,0.40845394134521484,0.04632735252380371,-0.6124923825263977
1784821990313499400,4.58849951171875,0.5876474380493164,0.08172249794006348,-0.4726596474647522
1784821990323499300,4.598499267578125,0.67645263671875,0.05441105365753174,-0.282266229391098
1784821990333499400,4.60849951171875,0.5961551666259766,-0.006452679634094238,-0.19042448699474335
1784821990343499300,4.618499267578125,0.6125288009643555,-0.10848093032836914,-0.08475637435913086
1784821990353499400,4.62849951171875,0.6703548431396484,-0.25577402114868164,-0.12073324620723724
1784821990363499300,4.638499267578125,0.7075815200805664,-0.2942599058151245,-0.4328336715698242
1784821990373499400,4.64849951171875,0.8292407989501953,-0.26038455963134766,-0.6783232092857361
1784821990383499300,4.658499267578125,0.9110012054443359,-0.3490718603134155,-0.8654037714004517
1784821990393499400,4.66849951171875,0.9053468704223633,-0.3995654582977295,-0.8451679944992065
1784821990403499300,4.678499267578125,0.8054256439208984,-0.38734614849090576,-0.6366006731987
1784821990413498400,4.688498291015625,0.6042556762695312,-0.4401205778121948,-0.4800136089324951
1784821990423498500,4.69849853515625,0.40952491760253906,-0.5211273431777954,-0.46760427951812744
1784821990433498400,4.708498291015625,0.15644264221191406,-0.5356308221817017,-0.4757833182811737
1784821990443498500,4.71849853515625,-0.10245418548583984,-0.5878517627716064,-0.433013379573822
1784821990453498400,4.728498291015625,-0.3267192840576172,-0.5994610786437988,-0.28339332342147827
1784821990463498500,4.73849853515625,-0.313262939453125,-0.6324423551559448,-0.14422518014907837
1784821990473498400,4.748498291015625,-0.3042106628417969,-0.6439766883850098,-0.31463107466697693
1784821990483498500,4.75849853515625,-0.3833189010620117,-0.6700320243835449,-0.5931361317634583
1784821990493498400,4.768498291015625,-0.5455522537231445,-0.6566575765609741,-0.7920312285423279
1784821990503498500,4.77849853515625,-0.6684474945068359,-0.5838916301727295,-0.7899457216262817
1784821990513499100,4.7884990234375,-0.7572002410888672,-0.5502113103866577,-0.5047906637191772
1784821990523499300,4.798499267578125,-0.7932376861572266,-0.6054309606552124,-0.012321940623223782
1784821990533466000,4.808466064453125,-0.8156242370605469,-0.6530450582504272,0.33274316787719727
1784821990543432700,4.8184326171875,-0.7377786636352539,-0.6375892162322998,0.6470289826393127
1784821990553399300,4.8283994140625,-0.6555004119873047,-0.6554036140441895,0.733555793762207
1784821990563366000,4.838365966796875,-0.4602069854736328,-0.6605432033538818,0.5957480669021606
1784821990573332700,4.848332763671875,-0.3049497604370117,-0.6253710985183716,0.2513688802719116
1784821990583299300,4.85829931640625,-0.138641357421875,-0.5170304775238037,-0.1367422491312027
1784821990593266000,4.868265869140625,-0.1331472396850586,-0.5384485721588135,-0.13056641817092896
1784821990603232800,4.878232666015625,0.3727550506591797,-0.5403532981872559,0.01951637864112854
1784821990613198300,4.8881982421875,0.5442342758178711,-0.5949773788452148,0.41369980573654175
1784821990623165200,4.898165283203125,0.5973968505859375,-0.5897171497344971,0.8011160492897034
1784821990633131800,4.9081318359375,0.5110931396484375,-0.5211663246154785,1.1010597944259644
1784821990643098400,4.918098388671875,0.32621002197265625,-0.42327237129211426,1.3720871210098267
1784821990653065200,4.928065185546875,0.13374805450439453,-0.4444253444671631,1.3856699466705322
1784821990663031800,4.93803173828125,-0.21274280548095703,-0.4512646198272705,1.1188015937805176
1784821990672998400,4.947998291015625,-0.5028247833251953,-0.3969883918762207,0.7978994846343994
1784821990682965000,4.957965087890625,-0.6887331008911133,-0.3358776569366455,0.4319697618484497
1784821990692931800,4.967931884765625,-0.8596267700195312,-0.27533483505249023,0.23930691182613373
1784821990702898400,4.9778984375,-1.0133142471313477,-0.15432500839233398,0.31350618600845337
1784821990712866000,4.987865966796875,-1.1500883102416992,-0.07982897758483887,0.5084912776947021
1784821990722832600,4.99783251953125,-1.2873401641845703,-0.15809130668640137,0.5983257293701172
1784821990732799200,5.00779931640625,-1.5908589363098145,-0.22287964820861816,0.6015757322311401
1784821990742766000,5.01776611328125,-1.7861924171447754,-0.2650332450866699,0.4733916223049164
1784821990752732700,5.027732666015625,-1.761845588684082,-0.3227274417877197,0.4159280061721802
1784821990762699300,5.03769921875,-1.7531557083129883,-0.3485746383666992,0.4245620667934418
1784821990772665900,5.047665771484375,-1.264197826385498,-0.3650777339935303,0.6646201014518738
1784821990782632700,5.0576328125,-0.8182764053344727,-0.3128662109375,0.7418062090873718
1784821990792599300,5.067599365234375,-0.4625253677368164,-0.3400232791900635,0.7028158903121948
1784821990802566000,5.07756591796875,-0.3032035827636719,-0.42207813262939453,0.41770273447036743
1784821990812531700,5.08753173828125,-0.4463958740234375,-0.4031219482421875,-0.0713646411895752
1784821990822498300,5.097498291015625,-0.6063308715820312,-0.34750843048095703,-0.37579604983329773
1784821990832498400,5.10749853515625,-0.8093929290771484,-0.2907981872558594,-0.4807989299297333
1784821990842498300,5.117498291015625,-0.7997474670410156,-0.3181006908416748,-0.46009039878845215
1784821990852498400,5.12749853515625,-1.2480077743530273,-0.2706024646759033,-0.2872771620750427
1784821990862498300,5.137498291015625,-1.4687862396240234,-0.2130415439605713,-0.08601218461990356
1784821990872498400,5.14749853515625,-1.642686367034912,-0.20011019706726074,0.14314107596874237
1784821990882498300,5.157498291015625,-1.5963711738586426,-0.10844016075134277,0.30103006958961487
1784821990892498400,5.16749853515625,-1.0845794677734375,-0.1240224838256836,0.3934139609336853
1784821990902498300,5.177498291015625,-0.6342620849609375,-0.25386524200439453,0.3145410120487213
1784821990912499200,5.187499267578125,-0.34419918060302734,-0.29207944869995117,0.09052373468875885
1784821990922499300,5.197499267578125,-0.3105640411376953,-0.17421555519104004,-0.24705110490322113
1784821990932499200,5.207499267578125,-0.38102054595947266,-0.059533119201660156,-0.3801037073135376
1784821990942499300,5.217499267578125,-0.3950347900390625,-0.0009210109710693359,-0.38595062494277954
1784821990952499200,5.227499267578125,-0.42940616607666016,-0.00032520294189453125,-0.3120313882827759
1784821990962499300,5.237499267578125,-0.37418651580810547,-0.004663705825805664,-0.32701486349105835
1784821990972498400,5.24749853515625,-0.3515787124633789,0.03894162178039551,-0.3539607524871826
1784821990982498300,5.257498291015625,-0.3757438659667969,0.08681321144104004,-0.31710195541381836
1784821990992498400,5.26749853515625,-0.5159902572631836,0.12663793563842773,-0.16450929641723633
1784821991002498300,5.277498291015625,-0.8914718627929688,0.16654109954833984,0.21009090542793274
1784821991012497400,5.287497314453125,-1.0824556350708008,0.21577858924865723,0.37087035179138184
1784821991022497500,5.29749755859375,-1.1215457916259766,0.2422926425933838,0.3798777163028717
1784821991032497400,5.307497314453125,-0.9328908920288086,0.31261610984802246,0.2669188678264618
1784821991042497500,5.31749755859375,-0.7057256698608398,0.3742363452911377,0.08019333332777023
1784821991052497400,5.327497314453125,-0.6524620056152344,0.40386390686035156,0.07449629157781601
1784821991062497500,5.33749755859375,-0.6332788467407227,0.38945460319519043,0.12709012627601624
1784821991072497400,5.347497314453125,-0.743494987487793,0.3418080806732178,0.16854454576969147
1784821991082497500,5.35749755859375,-0.7435922622680664,0.34207701683044434,0.16586801409721375
1784821991092497400,5.367497314453125,-0.9739303588867188,0.3409764766693115,0.33214858174324036
1784821991102497500,5.37749755859375,-0.7413625717163086,0.3463246822357178,0.4796631932258606
1784821991112498400,5.38749853515625,-0.5202465057373047,0.2057023048400879,0.5009368658065796
1784821991122498300,5.397498291015625,-0.3960895538330078,0.12804150581359863,0.38245412707328796
1784821991132498400,5.40749853515625,-0.320098876953125,0.20197629928588867,0.08495426923036575
1784821991142498300,5.417498291015625,-0.35647010803222656,0.2229015827178955,0.027788463979959488
1784821991152498400,5.42749853515625,-0.22970962524414062,0.20004057884216309,0.1947815716266632
1784821991162498300,5.437498291015625,-0.18307971954345703,0.19548439979553223,0.5476779937744141
1784821991172498400,5.44749853515625,-0.3417644500732422,0.19425320625305176,0.7752736210823059
1784821991182498300,5.457498291015625,-0.40206432342529297,0.19947457313537598,0.6941362619400024
1784821991192498400,5.46749853515625,-0.5223293304443359,0.2669224739074707,0.36737728118896484
1784821991202498300,5.477498291015625,-0.5184240341186523,0.3925471305847168,0.20553383231163025
1784821991212497400,5.487497314453125,-0.44580745697021484,0.42920446395874023,0.24901656806468964
1784821991222497500,5.49749755859375,-0.44092273712158203,0.33620691299438477,0.39774289727211
1784821991232497400,5.507497314453125,-0.44614315032958984,0.35012221336364746,0.4124617278575897
1784821991242497500,5.51749755859375,-0.5237903594970703,0.13355350494384766,0.7087610363960266
1784821991252497400,5.527497314453125,-0.4945831298828125,0.16611671447753906,0.7554875016212463
1784821991262497500,5.53749755859375,-0.20804214477539062,0.21895313262939453,0.7654477953910828
1784821991272498400,5.54749853515625,0.09862041473388672,0.12266135215759277,0.7571218609809875
1784821991282498300,5.557498291015625,0.08837318420410156,0.1511366367340088,0.7558587193489075
1784821991292498400,5.56749853515625,0.5331974029541016,-0.11987638473510742,0.6010003089904785
1784821991302498300,5.577498291015625,0.5959224700927734,-0.06537532806396484,0.4760197103023529
1784821991312499200,5.587499267578125,0.5006380081176758,-0.03667855262756348,0.3504312336444855
1784821991322499000,5.5974990234375,0.3498220443725586,-0.03016495704650879,0.36773499846458435
1784821991332499200,5.607499267578125,0.1287250518798828,0.024623632431030273,0.5029348731040955
1784821991342499000,5.6174990234375,-0.014783859252929688,0.014380693435668945,0.5609676837921143
1784821991352499200,5.627499267578125,-0.18647289276123047,-0.03337597846984863,0.5870125889778137
1784821991362499000,5.6374990234375,-0.3383932113647461,-0.011082649230957031,0.5741514563560486
1784821991372499200,5.647499267578125,-0.3921232223510742,0.13563752174377441,0.5601714253425598
1784821991382499000,5.6574990234375,-0.4849987030029297,0.15551471710205078,0.7025525569915771
1784821991392499200,5.667499267578125,-0.5478811264038086,0.049427032470703125,0.8227412104606628
1784821991402499000,5.6774990234375,-0.3200674057006836,-0.07887125015258789,0.8270977735519409
1784821991412498400,5.68749853515625,0.03309917449951172,-0.05650019645690918,0.8228927254676819
1784821991422498300,5.697498291015625,0.36154651641845703,-0.058027029037475586,0.637765109539032
1784821991432498400,5.70749853515625,0.6202716827392578,-0.010262727737426758,0.41257038712501526
1784821991442498300,5.717498291015625,0.5947246551513672,0.028636693954467773,0.30348101258277893
1784821991452498400,5.72749853515625,0.3643321990966797,0.03082132339477539,0.33396250009536743
1784821991462498300,5.737498291015625,0.14310264587402344,0.04578447341918945,0.28809046745300293
1784821991472498400,5.74749853515625,0.10658454895019531,0.08095812797546387,0.17116321623325348
1784821991482498300,5.757498291015625,0.026833534240722656,0.05668234825134277,0.1936572790145874
1784821991492498400,5.76749853515625,0.07890892028808594,0.09203791618347168,0.2331337183713913
1784821991502498300,5.777498291015625,0.2244434356689453,0.2352304458618164,0.2692265510559082
1784821991512499200,5.787499267578125,0.26965999603271484,0.30147647857666016,0.22958414256572723
1784821991522499300,5.797499267578125,0.22098541259765625,0.266359806060791,0.1852065771818161
1784821991532499200,5.807499267578125,0.3545045852661133,0.22350025177001953,0.16156873106956482
1784821991542499300,5.817499267578125,0.4090156555175781,0.13496780395507812,0.08799393475055695
1784821991552499200,5.827499267578125,0.34650707244873047,0.10968017578125,-0.0648820772767067
1784821991562499300,5.837499267578125,0.3852052688598633,0.11539864540100098,-0.2708163857460022
1784821991572500200,5.847500244140625,0.39575862884521484,0.10236072540283203,-0.45341625809669495
1784821991582500000,5.8575,0.4024991989135742,0.06261920928955078,-0.5456499457359314
1784821991592500200,5.867500244140625,0.37925148010253906,-0.05679583549499512,-0.5966393947601318
1784821991602500000,5.8775,0.23984527587890625,-0.1673741340637207,-0.6029502153396606
1784821991612499200,5.887499267578125,0.07096672058105469,-0.16045379638671875,-0.656887412071228
1784821991622499300,5.897499267578125,0.014497756958007812,-0.1458728313446045,-0.7368851900100708
1784821991632499200,5.907499267578125,0.09126949310302734,-0.2533907890319824,-0.9072483777999878
1784821991642499300,5.917499267578125,0.27957820892333984,-0.33422303199768066,-0.9611233472824097
1784821991652499200,5.927499267578125,0.2164287567138672,-0.3861966133117676,-0.8936145901679993
1784821991662499300,5.937499267578125,0.10133075714111328,-0.3563981056213379,-0.8792600631713867
1784821991672499200,5.947499267578125,0.0009965896606445312,-0.30121636390686035,-0.9220612645149231
1784821991682499300,5.957499267578125,-0.04441356658935547,-0.37720680236816406,-0.9507917165756226
1784821991692499200,5.967499267578125,-0.06412220001220703,-0.5041220188140869,-0.9941668510437012
1784821991702499300,5.977499267578125,-0.11337852478027344,-0.5667452812194824,-1.0970544815063477
1784821991712500200,5.987500244140625,-0.1513376235961914,-0.49851298332214355,-1.26819908618927
1784821991722500000,5.9975,-0.15625286102294922,-0.47693777084350586,-1.350305199623108
1784821991732500200,6.007500244140625,-0.23097896575927734,-0.5069093704223633,-1.2337141036987305
1784821991742500000,6.0175,-0.21966838836669922,-0.5505881309509277,-1.0817887783050537
1784821991752500200,6.027500244140625,-0.1273326873779297,-0.5713753700256348,-1.0017015933990479
1784821991762500000,6.0375,-0.0020351409912109375,-0.5759696960449219,-0.8136651515960693
1784821991772500200,6.047500244140625,0.14181995391845703,-0.6338934898376465,-0.7343649864196777
1784821991782500000,6.0575,0.18714141845703125,-0.6885559558868408,-0.6875156760215759
1784821991792500200,6.067500244140625,0.16776657104492188,-0.6307060718536377,-0.6686806082725525
1784821991802500000,6.0775,0.08153724670410156,-0.5566921234130859,-0.5739094614982605
1784821991812499200,6.087499267578125,0.08173179626464844,-0.5575473308563232,-0.5678013563156128
1784821991822499300,6.097499267578125,0.019989967346191406,-0.3891868591308594,-0.2021620124578476
1784821991832499200,6.107499267578125,-0.0605621337890625,-0.32940173149108887,0.08879004418849945
1784821991842499300,6.117499267578125,-0.004372596740722656,-0.26305675506591797,0.20199689269065857
1784821991852499200,6.127499267578125,0.015961647033691406,-0.2279655933380127,0.23078225553035736
1784821991862499300,6.137499267578125,-0.04963493347167969,-0.19359993934631348,0.16135944426059723
1784821991872498400,6.14749853515625,-0.13396930694580078,-0.17233824729919434,0.0817762166261673
1784821991882498300,6.157498291015625,-0.20616817474365234,-0.2041184902191162,0.024603545665740967
1784821991892498400,6.16749853515625,-0.25232410430908203,-0.23503470420837402,-0.025975853204727173
1784821991902498300,6.177498291015625,-0.30417633056640625,-0.2802004814147949,-0.023038789629936218
1784821991912499200,6.187499267578125,-0.1993389129638672,-0.28823304176330566,0.008139461278915405
1784821991922499300,6.197499267578125,-0.03992652893066406,-0.26923465728759766,0.00027677416801452637
1784821991932499200,6.207499267578125,0.12018871307373047,-0.28858375549316406,0.021928340196609497
1784821991942499300,6.217499267578125,0.21236419677734375,-0.2933695316314697,0.07308028638362885
1784821991952499200,6.227499267578125,0.38111114501953125,-0.28593945503234863,0.09988763928413391
1784821991962499300,6.237499267578125,0.5478067398071289,-0.3105292320251465,0.11024259030818939
1784821991972499200,6.247499267578125,0.5720691680908203,-0.3554964065551758,0.18913286924362183
1784821991982499300,6.257499267578125,0.5717964172363281,-0.314910888671875,0.1952582150697708
1784821991992499200,6.267499267578125,0.5707988739013672,-0.31276822090148926,0.2127380520105362
1784821992002499300,6.277499267578125,0.4087362289428711,-0.19828271865844727,0.1571367383003235
1784821992012498400,6.28749853515625,0.3176736831665039,-0.15999078750610352,0.18127398192882538
1784821992032498400,6.30749853515625,0.14699745178222656,-0.20306730270385742,0.17138196527957916
1784821992042498300,6.317498291015625,0.01636981964111328,-0.24896597862243652,0.16308292746543884
1784821992052498400,6.32749853515625,-0.10005760192871094,-0.18184137344360352,0.12747998535633087
1784821992062498300,6.337498291015625,-0.19553470611572266,-0.12016916275024414,0.21690234541893005
1784821992072498400,6.34749853515625,-0.14161968231201172,-0.04959297180175781,0.41445305943489075
1784821992082498300,6.357498291015625,0.06186389923095703,-0.0017573833465576172,0.5269724726676941
1784821992092498400,6.36749853515625,0.24757099151611328,-0.06354570388793945,0.5476363301277161
1784821992102498300,6.377498291015625,0.24672889709472656,-0.06122279167175293,0.5621158480644226
1784821992112499200,6.387499267578125,0.2662181854248047,0.06951022148132324,0.3569815456867218
1784821992122499300,6.397499267578125,0.057656288146972656,0.11620187759399414,0.295654833316803
1784821992132499200,6.407499267578125,-0.19266796112060547,0.07059335708618164,0.32761064171791077
1784821992142499300,6.417499267578125,-0.40883350372314453,0.04237842559814453,0.3313160836696625
1784821992152499200,6.427499267578125,-0.47440242767333984,0.02206587791442871,0.29102352261543274
1784821992162499300,6.437499267578125,-0.46651268005371094,0.00632166862487793,0.3150314688682556
1784821992172499200,6.447499267578125,-0.33015918731689453,-0.0023114681243896484,0.34312018752098083
1784821992182499300,6.457499267578125,-0.12299633026123047,0.05649924278259277,0.3086155652999878
1784821992192499200,6.467499267578125,0.016182899475097656,0.03168368339538574,0.33997154235839844
1784821992202499300,6.477499267578125,0.1119680404663086,-0.0162656307220459,0.39652666449546814
1784821992212498400,6.48749853515625,0.18627643585205078,0.009826183319091797,0.477935791015625
1784821992222498300,6.497498291015625,0.2082357406616211,0.011108875274658203,0.4006717801094055
1784821992232498400,6.50749853515625,0.05665874481201172,0.033040761947631836,0.28722676634788513
1784821992242498300,6.517498291015625,-0.1441049575805664,0.08074378967285156,0.14895224571228027
1784821992252498400,6.52749853515625,-0.33695316314697266,0.11446046829223633,0.04520239681005478
1784821992262498300,6.537498291015625,-0.46489810943603516,0.1187129020690918,0.022696547210216522
1784821992272498400,6.54749853515625,-0.36095523834228516,0.16454863548278809,0.11369915306568146
1784821992282498300,6.557498291015625,-0.26259803771972656,0.1645798683166504,0.21464696526527405
1784821992292498400,6.56749853515625,-0.2388143539428711,0.05301547050476074,0.32575273513793945
1784821992302498300,6.577498291015625,-0.30588626861572266,0.06321835517883301,0.326205313205719
1784821992312499200,6.587499267578125,-0.23891353607177734,0.14531970024108887,0.2606818675994873
1784821992322499300,6.597499267578125,-0.15799808502197266,0.1711258888244629,0.18554171919822693
1784821992332499200,6.607499267578125,-0.10123252868652344,0.17603111267089844,0.14197716116905212
1784821992342499300,6.617499267578125,-0.10204505920410156,0.21007323265075684,0.07561945170164108
1784821992352499200,6.627499267578125,-0.14355087280273438,0.227386474609375,0.07353650778532028
1784821992362499300,6.637499267578125,-0.23279285430908203,0.24672269821166992,0.06275763362646103
1784821992372499200,6.647499267578125,-0.1972827911376953,0.25820446014404297,0.11176146566867828
1784821992382499300,6.657499267578125,-0.23590373992919922,0.29816293716430664,0.19562092423439026
1784821992392499200,6.667499267578125,-0.2744007110595703,0.2922492027282715,0.22932809591293335
1784821992402499300,6.677499267578125,-0.26720237731933594,0.29056692123413086,0.17372970283031464
1784821992412498400,6.68749853515625,-0.2935819625854492,0.26988697052001953,0.09351678192615509
1784821992422498300,6.697498291015625,-0.28176116943359375,0.2901642322540283,0.06901610642671585
1784821992432498400,6.70749853515625,-0.20810222625732422,0.299518346786499,0.02551174908876419
1784821992442498300,6.717498291015625,-0.19957447052001953,0.2191915512084961,0.0001811981201171875
1784821992452498400,6.72749853515625,-0.20126724243164062,0.1717076301574707,-0.02761281281709671
1784821992462498300,6.737498291015625,-0.15346240997314453,0.2101304531097412,-0.006503388285636902
1784821992472498400,6.74749853515625,-0.087249755859375,0.17395949363708496,0.05275163799524307
1784821992482498300,6.757498291015625,0.057494163513183594,0.18460965156555176,0.04821925610303879
1784821992492498400,6.76749853515625,0.1421642303466797,0.18630003929138184,0.02857128158211708
1784821992502498300,6.777498291015625,0.0784006118774414,0.17599844932556152,0.05883680656552315
1784821992512499200,6.787499267578125,0.05788898468017578,0.17325997352600098,0.05053366720676422
1784821992522499300,6.797499267578125,0.12581539154052734,0.21404314041137695,-0.03046645224094391
1784821992532499200,6.807499267578125,0.1190805435180664,0.15305304527282715,0.017998598515987396
1784821992542499300,6.817499267578125,0.05497264862060547,0.16126060485839844,0.1139063686132431
1784821992552499200,6.827499267578125,-0.013589859008789062,0.17570853233337402,0.20028817653656006
1784821992562499300,6.837499267578125,-0.060302734375,0.19888949394226074,0.21515023708343506
1784821992572499200,6.847499267578125,0.053485870361328125,0.21701836585998535,0.2211269736289978
1784821992582499300,6.857499267578125,0.24134159088134766,0.1397867202758789,0.22441095113754272
1784821992592499200,6.867499267578125,0.30710601806640625,0.09128570556640625,0.22239303588867188
1784821992602499300,6.877499267578125,0.2250986099243164,0.13203191757202148,0.1426497995853424
1784821992612498400,6.88749853515625,0.13217639923095703,0.22268342971801758,0.042364101856946945
1784821992622498300,6.897498291015625,-0.010340690612792969,0.2349567413330078,0.0220937542617321
1784821992632498400,6.90749853515625,-0.14292049407958984,0.22956514358520508,0.045287590473890305
1784821992642498300,6.917498291015625,-0.3184976577758789,0.274219274520874,0.12320683896541595
1784821992652498400,6.92749853515625,-0.4055290222167969,0.27588891983032227,0.175555020570755
1784821992662498300,6.937498291015625,-0.31090259552001953,0.22811555862426758,0.16174714267253876
1784821992672498400,6.94749853515625,-0.3153057098388672,0.23052358627319336,0.1493634581565857
1784821992682498300,6.957498291015625,-0.40935516357421875,0.12553834915161133,-0.055648237466812134
1784821992692498400,6.96749853515625,-0.38681793212890625,0.11109113693237305,-0.324512243270874
1784821992702498600,6.97749853515625,-0.20261764526367188,0.06131243705749512,-0.408148854970932
1784821992712499200,6.987499267578125,-0.09532356262207031,0.0961151123046875,-0.4047091007232666
1784821992722499300,6.997499267578125,-0.011745452880859375,0.11592364311218262,-0.23357771337032318
1784821992732499200,7.007499267578125,-0.011963844299316406,0.11653590202331543,-0.23178395628929138
1784821992742499300,7.017499267578125,0.0713357925415039,-0.018607139587402344,0.08604425191879272
1784821992752499200,7.027499267578125,0.07529830932617188,-0.08586859703063965,0.0035388395190238953
1784821992762499300,7.037499267578125,0.18907451629638672,-0.1978318691253662,-0.18353037536144257
1784821992772499200,7.047499267578125,0.35305309295654297,-0.21147871017456055,-0.30776816606521606
1784821992782499300,7.057499267578125,0.4195127487182617,-0.09514236450195312,-0.3853781819343567
