time,seconds_elapsed,z,y,x
1784821985911139300,0.186139404296875,0.009162978269159794,-0.03237585723400116,-0.08552113175392151
1784821985921139200,0.19613916015625,-0.00733038317412138,-0.029932396486401558,-0.08429940044879913
1784821985931139300,0.206139404296875,-0.031154127791523933,-0.03237585723400116,-0.07391469180583954
1784821985941139200,0.21613916015625,-0.05009094998240471,-0.056810468435287476,-0.06108652427792549
1784821985951139300,0.226139404296875,-0.05619960278272629,-0.0910189226269722,-0.05192354694008827
1784821985961139200,0.23613916015625,-0.05497787147760391,-0.11178833991289139,-0.06108652427792549
1784821985971139300,0.246139404296875,-0.04703662544488907,-0.11789698898792267,-0.08857546001672745
1784821985981139200,0.25613916015625,-0.02626720629632473,-0.11911872029304504,-0.12034045159816742
1784821985991139300,0.266139404296875,-0.00855211354792118,-0.12095131725072861,-0.1466076523065567
1784821986001139200,0.27613916015625,0,-0.11239920556545258,-0.16920967400074005
1784821986011136500,0.286136474609375,0.00855211354792118,-0.1160643994808197,-0.19364428520202637
1784821986021136600,0.29613671875,0.019547687843441963,-0.1459967941045761,-0.21991148591041565
1784821986031136500,0.306136474609375,0.018325956538319588,-0.19914206862449646,-0.2474004179239273
1784821986041136600,0.31613671875,-0.0006108652451075613,-0.24495697021484375,-0.2718350291252136
1784821986051136500,0.326136474609375,-0.028099801391363144,-0.24495697021484375,-0.28466320037841797
1784821986061136600,0.33613671875,-0.05009094998240471,-0.2021963894367218,-0.29016098380088806
1784821986071136500,0.346136474609375,-0.06536258012056351,-0.13561208546161652,-0.2718350291252136
1784821986081136600,0.35613671875,-0.06475171446800232,-0.11178833991289139,-0.24678955972194672
1784821986091136500,0.366136474609375,-0.059864792972803116,-0.09040805697441101,-0.2168571650981903
1784821986101136600,0.37613671875,-0.05375614017248154,-0.060475658625364304,-0.182648703455925
1784821986111136500,0.386136474609375,-0.051312681287527084,-0.019547687843441963,-0.16065755486488342
1784821986121136600,0.39613671875,-0.04398229718208313,0.03420845419168472,-0.14233160018920898
1784821986131136500,0.406136474609375,-0.03787364438176155,0.08368854224681854,-0.12461651116609573
1784821986141136600,0.41613671875,-0.03726277872920036,0.09896016865968704,-0.10873401165008545
1784821986151136500,0.426136474609375,-0.04337143152952194,0.0806342139840126,-0.09468411654233932
1784821986161136600,0.43613671875,-0.051312681287527084,0.05864306539297104,-0.08368854224681854
1784821986171136500,0.446136474609375,-0.05864306539297104,0.05375614017248154,-0.08552113175392151
1784821986181136400,0.456136474609375,-0.06475171446800232,0.060475658625364304,-0.09529497474431992
1784821986191136500,0.466136474609375,-0.05803219974040985,0.06719517707824707,-0.09896016865968704
1784821986201136400,0.476136474609375,-0.05192354694008827,0.06352998316287994,-0.09468411654233932
1784821986211135500,0.486135498046875,-0.05253441259264946,0.04398229718208313,-0.08429940044879913
1784821986221135600,0.496135498046875,-0.054367005825042725,0.015882495790719986,-0.07819075137376785
1784821986231135500,0.506135498046875,-0.04581489413976669,0.01466076634824276,-0.08918632566928864
1784821986241135600,0.516135498046875,-0.0403171069920063,0.039706241339445114,-0.10262536257505417
1784821986251135500,0.526135498046875,-0.03420845419168472,0.06536258012056351,-0.11545353382825851
1784821986261135600,0.536135498046875,-0.024434609338641167,0.0708603709936142,-0.12217304855585098
1784821986271135700,0.5461357421875,-0.02382374368607998,0.06169738993048668,-0.1270599663257599
1784821986281135600,0.556135498046875,-0.025656340643763542,0.04153883829712868,-0.13316862285137177
1784821986291135700,0.5661357421875,-0.027488935738801956,0.01038470957428217,-0.14966198801994324
1784821986301135600,0.576135498046875,-0.02932153269648552,-0.021991148591041565,-0.17104226350784302
1784821986311136500,0.586136474609375,-0.027488935738801956,-0.04581489413976669,-0.1918116807937622
1784821986321136400,0.596136474609375,-0.02687807008624077,-0.04214970022439957,-0.21135938167572021
1784821986331136500,0.606136474609375,-0.028099801391363144,-0.02626720629632473,-0.22418753802776337
1784821986341136400,0.616136474609375,-0.03237585723400116,-0.01160643994808197,-0.23151792585849762
1784821986351136500,0.626136474609375,-0.03420845419168472,0.006108652334660292,-0.24068090319633484
1784821986361136400,0.636136474609375,-0.03176499158143997,0.00733038317412138,-0.24617868661880493
1784821986371136500,0.646136474609375,-0.022602014243602753,-0.009773843921720982,-0.2474004179239273
1784821986381136400,0.656136474609375,-0.015271631069481373,-0.036041051149368286,-0.25473082065582275
1784821986391136500,0.666136474609375,-0.015882495790719986,-0.04153883829712868,-0.2773328125476837
1784821986401136400,0.676136474609375,-0.018325956538319588,-0.04092797264456749,-0.3170390725135803
1784821986411135500,0.686135498046875,-0.02687807008624077,-0.03237585723400116,-0.3628539443016052
1784821986421135600,0.696135498046875,-0.036651913076639175,-0.02871066704392433,-0.40194934606552124
1784821986431135500,0.706135498046875,-0.04703662544488907,-0.02382374368607998,-0.42699480056762695
1784821986441135600,0.716135498046875,-0.05742133408784866,0.012828170321881771,-0.4300491213798523
1784821986451135500,0.726135498046875,-0.07757988572120667,0.07269296050071716,-0.42149701714515686
1784821986461135600,0.736135498046875,-0.09957103431224823,0.12095131725072861,-0.413555771112442
1784821986471135500,0.746135498046875,-0.11239920556545258,0.14416420459747314,-0.4080579876899719
1784821986481135600,0.756135498046875,-0.11056660860776901,0.15454891324043274,-0.4001167416572571
1784821986491135500,0.766135498046875,-0.10751228034496307,0.1459967941045761,-0.3988949954509735
1784821986501135600,0.776135498046875,-0.10812314599752426,0.13072516024112701,-0.39767327904701233
1784821986511136500,0.786136474609375,-0.11911872029304504,0.1111774742603302,-0.40194934606552124
1784821986521136400,0.796136474609375,-0.13927727937698364,0.08185594528913498,-0.4056145250797272
1784821986531136500,0.806136474609375,-0.17043140530586243,0.05925392732024193,-0.4086688458919525
1784821986541136600,0.81613671875,-0.17837265133857727,0.05253441259264946,-0.4129449129104614
1784821986551136500,0.826136474609375,-0.1661553531885147,0.0507018156349659,-0.41599923372268677
1784821986561136600,0.83613671875,-0.14049901068210602,0.04703662544488907,-0.41599923372268677
1784821986571136500,0.846136474609375,-0.11239920556545258,0.056810468435287476,-0.4105014503002167
1784821986581136400,0.856136474609375,-0.09285151958465576,0.07330382615327835,-0.3995058834552765
1784821986591136500,0.866136474609375,-0.0806342139840126,0.09407325088977814,-0.37568211555480957
1784821986601136400,0.876136474609375,-0.07208210229873657,0.09162978827953339,-0.3292563557624817
1784821986611135700,0.8861357421875,-0.07941248267889023,0.07880161702632904,-0.27488934993743896
1784821986621135600,0.896135498046875,-0.09468411654233932,0.05864306539297104,-0.21868975460529327
1784821986631135700,0.9061357421875,-0.10262536257505417,0.02871066704392433,-0.15821409225463867
1784821986641135600,0.916135498046875,-0.11178833991289139,-0.010995574295520782,-0.09896016865968704
1784821986651135700,0.9261357421875,-0.11484266817569733,-0.045204028487205505,-0.04642575979232788
1784821986661135600,0.936135498046875,-0.11484266817569733,-0.05192354694008827,0.004886921960860491
1784821986671135700,0.9461357421875,-0.10506882518529892,-0.033597588539123535,0.04703662544488907
1784821986681135600,0.956135498046875,-0.08491026610136032,-0.018325956538319588,0.07696902006864548
1784821986691135700,0.9661357421875,-0.0354301854968071,-0.006108652334660292,0.1014036312699318
1784821986701135600,0.976135498046875,0.0006108652451075613,-0.01160643994808197,0.10567969083786011
1784821986711136500,0.986136474609375,0.024434609338641167,-0.027488935738801956,0.09773843735456467
1784821986721136400,0.996136474609375,0.0354301854968071,-0.051312681287527084,0.08368854224681854
1784821986731136500,1.006136474609375,0.039706241339445114,-0.054367005825042725,0.07513642311096191
1784821986741136400,1.016136474609375,0.039706241339445114,-0.04642575979232788,0.059864792972803116
1784821986751136300,1.02613623046875,0.04092797264456749,-0.03298672288656235,0.04337143152952194
1784821986761136400,1.036136474609375,0.045204028487205505,-0.016493361443281174,0.033597588539123535
1784821986771136300,1.04613623046875,0.04703662544488907,0.0012217304902151227,0.02626720629632473
1784821986781136400,1.056136474609375,0.04398229718208313,0.004886921960860491,0.02321287989616394
1784821986791136300,1.06613623046875,0.030543262138962746,-0.00366519158706069,0.02871066704392433
1784821986801136400,1.076136474609375,0.01160643994808197,-0.018325956538319588,0.033597588539123535
1784821986811135500,1.086135498046875,-0.005497787147760391,-0.03481931984424591,0.027488935738801956
1784821986821135600,1.096135498046875,-0.016493361443281174,-0.04398229718208313,0.01466076634824276
1784821986831135500,1.106135498046875,-0.02076941914856434,-0.04337143152952194,-0.004886921960860491
1784821986841135400,1.11613525390625,-0.015271631069481373,-0.01710422709584236,-0.03726277872920036
1784821986851135500,1.126135498046875,-0.00733038317412138,-0.0006108652451075613,-0.05803219974040985
1784821986861135400,1.13613525390625,-0.001832595793530345,0.01466076634824276,-0.07391469180583954
1784821986871135500,1.146135498046875,0.006108652334660292,0.01038470957428217,-0.08979719132184982
1784821986881135400,1.15613525390625,0.018936822190880775,-0.001832595793530345,-0.10506882518529892
1784821986891135500,1.166135498046875,0.03176499158143997,-0.021380282938480377,-0.12217304855585098
1784821986901135400,1.17613525390625,0.030543262138962746,-0.02871066704392433,-0.13500121235847473
1784821986911136300,1.18613623046875,0.02382374368607998,-0.021380282938480377,-0.1411098688840866
1784821986921136400,1.196136474609375,0.012828170321881771,-0.016493361443281174,-0.14049901068210602
1784821986931136300,1.20613623046875,0.0006108652451075613,-0.015882495790719986,-0.12400564551353455
1784821986941136400,1.216136474609375,-0.013439035043120384,-0.01466076634824276,-0.09896016865968704
1784821986951136300,1.22613623046875,-0.02015855349600315,-0.01710422709584236,-0.07757988572120667
1784821986961136600,1.23613671875,-0.01710422709584236,-0.013439035043120384,-0.05619960278272629
1784821986971136800,1.24613671875,-0.00855211354792118,-0.00427605677396059,-0.03726277872920036
1784821986981136600,1.25613671875,0.003054326167330146,-0.0012217304902151227,-0.025045474991202354
1784821986991136800,1.26613671875,0.018936822190880775,-0.007941247895359993,-0.01771509274840355
1784821987001136600,1.27613671875,0.02626720629632473,-0.02015855349600315,-0.018325956538319588
1784821987011136000,1.286135986328125,0.030543262138962746,-0.0354301854968071,-0.025045474991202354
1784821987021136000,1.296135986328125,0.02687807008624077,-0.03848451003432274,-0.03848451003432274
1784821987031136000,1.306135986328125,0.025045474991202354,-0.025045474991202354,-0.045204028487205505
1784821987041136000,1.31613623046875,0.019547687843441963,-0.00366519158706069,-0.04398229718208313
1784821987051136300,1.32613623046875,0.02015855349600315,0.0012217304902151227,-0.03481931984424591
1784821987061136100,1.33613623046875,0.02076941914856434,0.005497787147760391,-0.018325956538319588
1784821987071136300,1.34613623046875,0.019547687843441963,-0.00366519158706069,-0.00366519158706069
1784821987081136000,1.35613623046875,0.015271631069481373,-0.01160643994808197,0.014049900695681572
1784821987091136300,1.36613623046875,0.01038470957428217,-0.016493361443281174,0.025656340643763542
1784821987101136100,1.37613623046875,0.009773843921720982,-0.018325956538319588,0.02687807008624077
1784821987111137000,1.386136962890625,0.010995574295520782,-0.018325956538319588,0.02321287989616394
1784821987121137000,1.396136962890625,0.007941247895359993,-0.018325956538319588,0.01771509274840355
1784821987131137000,1.406136962890625,0.00366519158706069,-0.01038470957428217,0.01710422709584236
1784821987141137000,1.416136962890625,-0.006719517521560192,-0.001832595793530345,0.01771509274840355
1784821987151137000,1.426136962890625,-0.00427605677396059,0.009162978269159794,0.025656340643763542
1784821987161137000,1.436136962890625,0.0024434609804302454,0.01466076634824276,0.030543262138962746
1784821987171137000,1.446136962890625,0.01038470957428217,0.015271631069481373,0.03481931984424591
1784821987181137000,1.456136962890625,0.015882495790719986,0.021380282938480377,0.03298672288656235
1784821987191137000,1.466136962890625,0.018325956538319588,0.029932396486401558,0.02871066704392433
1784821987201137000,1.476136962890625,0.018936822190880775,0.025045474991202354,0.02321287989616394
1784821987211136000,1.486135986328125,0.02076941914856434,0.009773843921720982,0.012828170321881771
1784821987221136100,1.49613623046875,0.025045474991202354,-0.006719517521560192,0.003054326167330146
1784821987231136000,1.506135986328125,0.027488935738801956,-0.01038470957428217,-0.00427605677396059
1784821987241136000,1.51613623046875,0.02687807008624077,0.003054326167330146,-0.004886921960860491
1784821987251136000,1.526135986328125,0.028099801391363144,0.0006108652451075613,-0.003054326167330146
1784821987261135600,1.536135498046875,0.036041051149368286,-0.012828170321881771,0.003054326167330146
1784821987271135700,1.5461357421875,0.045204028487205505,-0.009773843921720982,0.009773843921720982
1784821987281135600,1.556135498046875,0.04398229718208313,0.015271631069481373,0.00733038317412138
1784821987293498600,1.56849853515625,0.04153883829712868,0.04948008432984352,0.009162978269159794
1784821987303498500,1.57849853515625,0.0354301854968071,0.056810468435287476,0.030543262138962746
1784821987313499400,1.58849951171875,0.03298672288656235,0.02932153269648552,0.04764748737215996
1784821987323499300,1.598499267578125,0.03298672288656235,0.01038470957428217,0.060475658625364304
1784821987333499400,1.60849951171875,0.03481931984424591,0.010995574295520782,0.06414084881544113
1784821987343499300,1.618499267578125,0.03848451003432274,0.01466076634824276,0.059864792972803116
1784821987353499400,1.62849951171875,0.0403171069920063,0.006719517521560192,0.05497787147760391
1784821987363499300,1.638499267578125,0.0403171069920063,-0.01771509274840355,0.045204028487205505
1784821987373499400,1.64849951171875,0.036651913076639175,-0.033597588539123535,0.03237585723400116
1784821987383499300,1.658499267578125,0.0354301854968071,-0.028099801391363144,0.02076941914856434
1784821987393499400,1.66849951171875,0.029932396486401558,-0.009773843921720982,0.012217304669320583
1784821987403499300,1.678499267578125,0.025045474991202354,-0.0024434609804302454,0.00733038317412138
1784821987413498400,1.688498291015625,0.018325956538319588,-0.0024434609804302454,0.006108652334660292
1784821987423498500,1.69849853515625,0.00733038317412138,-0.00733038317412138,0.006108652334660292
1784821987433498400,1.708498291015625,-0.005497787147760391,-0.012828170321881771,0.01038470957428217
1784821987443498500,1.71849853515625,-0.01038470957428217,-0.018936822190880775,0.02076941914856434
1784821987453498400,1.728498291015625,-0.00366519158706069,-0.024434609338641167,0.021380282938480377
1784821987463498500,1.73849853515625,0.00855211354792118,-0.03176499158143997,0.014049900695681572
1784821987473498400,1.748498291015625,0.015882495790719986,-0.033597588539123535,0.005497787147760391
1784821987483498500,1.75849853515625,0.01771509274840355,-0.027488935738801956,-0.0006108652451075613
1784821987493498400,1.768498291015625,0.01771509274840355,-0.010995574295520782,-0.0012217304902151227
1784821987503498500,1.77849853515625,0.015882495790719986,0.012217304669320583,0.00366519158706069
1784821987513499400,1.78849951171875,0.01710422709584236,0.01710422709584236,0.012828170321881771
1784821987523499300,1.798499267578125,0.015882495790719986,0.006719517521560192,0.025656340643763542
1784821987533499400,1.80849951171875,0.009773843921720982,-0.00366519158706069,0.04153883829712868
1784821987543499500,1.81849951171875,0.006719517521560192,-0.006108652334660292,0.05742133408784866
1784821987553499400,1.82849951171875,0.005497787147760391,0.003054326167330146,0.06414084881544113
1784821987563499500,1.83849951171875,0.004886921960860491,0.004886921960860491,0.06169738993048668
1784821987573499400,1.84849951171875,0.009162978269159794,-0.0006108652451075613,0.05619960278272629
1784821987583499300,1.858499267578125,0.01710422709584236,-0.015882495790719986,0.04703662544488907
1784821987593499400,1.86849951171875,0.025656340643763542,-0.024434609338641167,0.03481931984424591
1784821987603499300,1.878499267578125,0.03298672288656235,-0.018325956538319588,0.007941247895359993
1784821987613498600,1.88849853515625,0.039095375686883926,-0.013439035043120384,-0.005497787147760391
1784821987623498500,1.89849853515625,0.03481931984424591,0,-0.007941247895359993
1784821987633498600,1.90849853515625,0.02076941914856434,0.005497787147760391,-0.00366519158706069
1784821987643498500,1.91849853515625,0.015271631069481373,0.003054326167330146,0.00855211354792118
1784821987653498600,1.92849853515625,0.00855211354792118,0,0.01710422709584236
1784821987663498500,1.93849853515625,0.00427605677396059,-0.0024434609804302454,0.019547687843441963
1784821987673498600,1.94849853515625,0.0012217304902151227,-0.005497787147760391,0.01710422709584236
1784821987683498500,1.95849853515625,0.0006108652451075613,-0.012828170321881771,0.014049900695681572
1784821987693498600,1.96849853515625,0.005497787147760391,-0.015271631069481373,0.007941247895359993
1784821987703498500,1.97849853515625,0.012217304669320583,-0.012217304669320583,-0.003054326167330146
1784821987713499400,1.98849951171875,0.018325956538319588,-0.003054326167330146,-0.016493361443281174
1784821987723499300,1.998499267578125,0.02076941914856434,0.00366519158706069,-0.02871066704392433
1784821987733499400,2.00849951171875,0.02382374368607998,0.010995574295520782,-0.028099801391363144
1784821987743499300,2.018499267578125,0.01160643994808197,0.018325956538319588,-0.02015855349600315
1784821987753499400,2.02849951171875,-0.009162978269159794,0.01710422709584236,0.012828170321881771
1784821987763499300,2.038499267578125,-0.014049900695681572,0.01038470957428217,0.03848451003432274
1784821987773499400,2.04849951171875,-0.014049900695681572,0.001832595793530345,0.0555887371301651
1784821987783499300,2.058499267578125,-0.007941247895359993,-0.0024434609804302454,0.059864792972803116
1784821987793499400,2.06849951171875,0.006108652334660292,-0.001832595793530345,0.04948008432984352
1784821987803499300,2.078499267578125,0.02076941914856434,0.0006108652451075613,0.02871066704392433
1784821987813498600,2.08849853515625,0.03237585723400116,0.006719517521560192,0.00427605677396059
1784821987823498500,2.09849853515625,0.03726277872920036,0.009773843921720982,-0.013439035043120384
1784821987833498400,2.108498291015625,0.02871066704392433,0.006108652334660292,-0.02076941914856434
1784821987843498500,2.11849853515625,0.018325956538319588,-0.003054326167330146,-0.025656340643763542
1784821987853498400,2.128498291015625,0.01710422709584236,-0.01160643994808197,-0.02871066704392433
1784821987863498500,2.13849853515625,0.021380282938480377,-0.01710422709584236,-0.03420845419168472
1784821987873498400,2.148498291015625,0.02626720629632473,-0.014049900695681572,-0.03848451003432274
1784821987883498500,2.15849853515625,0.029932396486401558,0.00427605677396059,-0.04153883829712868
1784821987893498400,2.168498291015625,0.025656340643763542,0.027488935738801956,-0.039095375686883926
1784821987903498500,2.17849853515625,0.019547687843441963,0.03787364438176155,-0.030543262138962746
1784821987913499400,2.18849951171875,0.005497787147760391,0.024434609338641167,-0.01710422709584236
1784821987923499300,2.198499267578125,0.0012217304902151227,0.009162978269159794,-0.007941247895359993
1784821987933499400,2.20849951171875,0.0006108652451075613,0.006108652334660292,-0.0006108652451075613
1784821987943499300,2.218499267578125,0.00855211354792118,0.01038470957428217,-0.00427605677396059
1784821987953499400,2.22849951171875,0.022602014243602753,0.018936822190880775,-0.01466076634824276
1784821987963499300,2.238499267578125,0.02932153269648552,0.022602014243602753,-0.025045474991202354
1784821987973499400,2.24849951171875,0.029932396486401558,0.018936822190880775,-0.03298672288656235
1784821987983499300,2.258499267578125,0.02687807008624077,0.00855211354792118,-0.04092797264456749
1784821987993499400,2.26849951171875,0.025045474991202354,-0.001832595793530345,-0.04337143152952194
1784821988003499300,2.278499267578125,0.02932153269648552,-0.0006108652451075613,-0.04642575979232788
1784821988013498400,2.288498291015625,0.03176499158143997,0.006108652334660292,-0.05009094998240471
1784821988023498500,2.29849853515625,0.024434609338641167,0.01160643994808197,-0.0507018156349659
1784821988033498600,2.30849853515625,0.01771509274840355,0.015271631069481373,-0.03848451003432274
1784821988043498500,2.31849853515625,0.007941247895359993,0.014049900695681572,-0.022602014243602753
1784821988053498600,2.32849853515625,0.0012217304902151227,0.016493361443281174,-0.009773843921720982
1784821988063498500,2.33849853515625,0.007941247895359993,0.015882495790719986,-0.006108652334660292
1784821988073498600,2.34849853515625,0.01466076634824276,0.007941247895359993,0.0006108652451075613
1784821988083498500,2.35849853515625,0.018936822190880775,0.005497787147760391,0.00855211354792118
1784821988093498600,2.36849853515625,0.018325956538319588,0.00733038317412138,0.006108652334660292
1784821988103498500,2.37849853515625,0.02015855349600315,0.00733038317412138,-0.0024434609804302454
1784821988113499400,2.38849951171875,0.02382374368607998,0.006108652334660292,-0.00733038317412138
1784821988123499300,2.398499267578125,0.02626720629632473,0.006108652334660292,-0.007941247895359993
1784821988133499400,2.40849951171875,0.025656340643763542,0.00855211354792118,-0.00855211354792118
1784821988143499300,2.418499267578125,0.024434609338641167,0.004886921960860491,-0.006108652334660292
1784821988153499400,2.42849951171875,0.02015855349600315,0.00366519158706069,-0.005497787147760391
1784821988163499300,2.438499267578125,0.01466076634824276,0.00366519158706069,-0.004886921960860491
1784821988173499400,2.44849951171875,0.012828170321881771,0.0024434609804302454,-0.00733038317412138
1784821988183499300,2.458499267578125,0.012828170321881771,0.006719517521560192,-0.006719517521560192
1784821988193499400,2.46849951171875,0.006108652334660292,0.01466076634824276,0.0006108652451075613
1784821988203499300,2.478499267578125,-0.007941247895359993,0.02076941914856434,0.015882495790719986
1784821988213498600,2.48849853515625,-0.02015855349600315,0.02015855349600315,0.03298672288656235
1784821988223498500,2.49849853515625,-0.015271631069481373,0.01710422709584236,0.05314527451992035
1784821988233498600,2.50849853515625,-0.00427605677396059,0.018325956538319588,0.04886921867728233
1784821988243498500,2.51849853515625,0.015271631069481373,0.007941247895359993,0.0354301854968071
1784821988253498600,2.52849853515625,0.030543262138962746,-0.0024434609804302454,0.01466076634824276
1784821988263498500,2.53849853515625,0.04153883829712868,-0.01160643994808197,-0.013439035043120384
1784821988273498600,2.54849853515625,0.04092797264456749,-0.0012217304902151227,-0.03787364438176155
1784821988283498500,2.55849853515625,0.03298672288656235,0.00427605677396059,-0.054367005825042725
1784821988293498600,2.56849853515625,0.024434609338641167,-0.00366519158706069,-0.060475658625364304
1784821988303498500,2.57849853515625,0.015271631069481373,-0.00855211354792118,-0.05009094998240471
1784821988313499400,2.58849951171875,0.009162978269159794,-0.0024434609804302454,-0.03176499158143997
1784821988323499300,2.598499267578125,0.01038470957428217,0.003054326167330146,-0.015882495790719986
1784821988333499400,2.60849951171875,0.015271631069481373,0.005497787147760391,-0.003054326167330146
1784821988343499300,2.618499267578125,0.02015855349600315,0.0012217304902151227,0.00366519158706069
1784821988353499400,2.62849951171875,0.021991148591041565,0.004886921960860491,0.005497787147760391
1784821988363499300,2.638499267578125,0.02321287989616394,0.00427605677396059,-0.00366519158706069
1784821988373499400,2.64849951171875,0.02626720629632473,-0.00855211354792118,-0.024434609338641167
1784821988383499300,2.658499267578125,0.030543262138962746,-0.01466076634824276,-0.045204028487205505
1784821988393499400,2.66849951171875,0.03848451003432274,-0.02076941914856434,-0.06780604273080826
1784821988403499300,2.678499267578125,0.0507018156349659,-0.027488935738801956,-0.09346238523721695
1784821988413498400,2.688498291015625,0.05742133408784866,-0.01771509274840355,-0.11056660860776901
1784821988423498500,2.69849853515625,0.04703662544488907,0.004886921960860491,-0.11056660860776901
1784821988433498400,2.708498291015625,0.02687807008624077,0.02626720629632473,-0.09040805697441101
1784821988443498500,2.71849853515625,0.006108652334660292,0.028099801391363144,-0.04948008432984352
1784821988453498400,2.728498291015625,-0.006719517521560192,0.018325956538319588,-0.0024434609804302454
1784821988463498500,2.73849853515625,-0.013439035043120384,0.00855211354792118,0.04214970022439957
1784821988473498400,2.748498291015625,-0.00855211354792118,0.015271631069481373,0.07269296050071716
1784821988483498500,2.75849853515625,0.004886921960860491,0.028099801391363144,0.08552113175392151
1784821988493498400,2.768498291015625,0.019547687843441963,0.03237585723400116,0.08491026610136032
1784821988503498500,2.77849853515625,0.031154127791523933,0.018325956538319588,0.07330382615327835
1784821988513499400,2.78849951171875,0.03420845419168472,-0.003054326167330146,0.04764748737215996
1784821988523499300,2.798499267578125,0.024434609338641167,-0.009773843921720982,0.005497787147760391
1784821988533499400,2.80849951171875,0.019547687843441963,-0.006108652334660292,-0.013439035043120384
1784821988543499300,2.818499267578125,0.019547687843441963,-0.0024434609804302454,-0.025656340643763542
1784821988553499400,2.82849951171875,0.021991148591041565,-0.004886921960860491,-0.030543262138962746
1784821988563499300,2.838499267578125,0.025656340643763542,-0.00366519158706069,-0.027488935738801956
1784821988573499400,2.84849951171875,0.021991148591041565,-0.0024434609804302454,-0.02015855349600315
1784821988583499300,2.858499267578125,0.016493361443281174,-0.005497787147760391,-0.009162978269159794
1784821988593499400,2.86849951171875,0.01160643994808197,-0.006719517521560192,-0.0006108652451075613
1784821988603499300,2.878499267578125,0.007941247895359993,-0.006108652334660292,-0.0006108652451075613
1784821988613498400,2.888498291015625,0.012217304669320583,-0.001832595793530345,-0.0024434609804302454
1784821988623498500,2.89849853515625,0.009162978269159794,0.007941247895359993,-0.0006108652451075613
1784821988633498400,2.908498291015625,0.00366519158706069,0.025045474991202354,0.00733038317412138
1784821988643498500,2.91849853515625,0,0.03481931984424591,0.018325956538319588
1784821988653498400,2.928498291015625,0.0024434609804302454,0.03237585723400116,0.033597588539123535
1784821988663498500,2.93849853515625,0.004886921960860491,0.018936822190880775,0.04581489413976669
1784821988673498400,2.948498291015625,0.018936822190880775,-0.001832595793530345,0.04948008432984352
1784821988683498500,2.95849853515625,0.02871066704392433,-0.006719517521560192,0.04153883829712868
1784821988693498400,2.968498291015625,0.03237585723400116,-0.014049900695681572,0.02871066704392433
1784821988703498500,2.97849853515625,0.031154127791523933,-0.019547687843441963,0.012217304669320583
1784821988713499400,2.98849951171875,0.02932153269648552,-0.02015855349600315,-0.0012217304902151227
1784821988723499300,2.998499267578125,0.02626720629632473,-0.01771509274840355,-0.015271631069481373
1784821988733499400,3.00849951171875,0.028099801391363144,-0.01038470957428217,-0.02626720629632473
1784821988753499400,3.02849951171875,0.022602014243602753,0.01160643994808197,-0.029932396486401558
1784821988763499300,3.038499267578125,0.019547687843441963,0.025045474991202354,-0.02015855349600315
1784821988773499400,3.04849951171875,0.018936822190880775,0.02871066704392433,-0.00427605677396059
1784821988783499500,3.05849951171875,0.016493361443281174,0.019547687843441963,0.007941247895359993
1784821988793499400,3.06849951171875,0.015882495790719986,0.00855211354792118,0.015882495790719986
1784821988803499500,3.07849951171875,0.015882495790719986,0.009773843921720982,0.018936822190880775
1784821988813498600,3.08849853515625,0.01710422709584236,0.009773843921720982,0.015882495790719986
1784821988823498500,3.09849853515625,0.01160643994808197,0.00366519158706069,0.004886921960860491
1784821988833498400,3.108498291015625,0.012217304669320583,-0.006108652334660292,-0.0024434609804302454
1784821988843498500,3.11849853515625,0.01466076634824276,-0.006108652334660292,-0.005497787147760391
1784821988853498400,3.128498291015625,0.016493361443281174,0.003054326167330146,-0.006719517521560192
1784821988863498500,3.13849853515625,0.018325956538319588,0.018936822190880775,-0.006719517521560192
1784821988873498400,3.148498291015625,0.025045474991202354,0.02321287989616394,-0.00427605677396059
1784821988883498500,3.15849853515625,0.024434609338641167,0.02076941914856434,0.006108652334660292
1784821988893498400,3.168498291015625,0.016493361443281174,0.01771509274840355,0.021991148591041565
1784821988903498500,3.17849853515625,0.010995574295520782,0.01038470957428217,0.03420845419168472
1784821988913499400,3.18849951171875,0.01038470957428217,0.004886921960860491,0.03176499158143997
1784821988923499300,3.198499267578125,0.012217304669320583,0.003054326167330146,0.018325956538319588
1784821988933499400,3.20849951171875,0.01771509274840355,0.00427605677396059,0.00366519158706069
1784821988943499300,3.218499267578125,0.02076941914856434,0.004886921960860491,-0.007941247895359993
1784821988953499400,3.22849951171875,0.021991148591041565,0.00366519158706069,-0.018936822190880775
1784821988963499300,3.238499267578125,0.02076941914856434,0.0012217304902151227,-0.02382374368607998
1784821988973499400,3.24849951171875,0.018325956538319588,0.005497787147760391,-0.019547687843441963
1784821988983499300,3.258499267578125,0.01466076634824276,0.018936822190880775,-0.0024434609804302454
1784821988993499400,3.26849951171875,0.02076941914856434,0.019547687843441963,0.009162978269159794
1784821989003499300,3.278499267578125,0.02687807008624077,0.01771509274840355,0.018325956538319588
1784821989013498400,3.288498291015625,0.02687807008624077,0.012828170321881771,0.02382374368607998
1784821989023498500,3.29849853515625,0.02321287989616394,0.00733038317412138,0.02382374368607998
1784821989033498400,3.308498291015625,0.015882495790719986,0.01160643994808197,0.01771509274840355
1784821989043498500,3.31849853515625,0.009773843921720982,0.02015855349600315,0.009162978269159794
1784821989053498400,3.328498291015625,0.00733038317412138,0.024434609338641167,-0.0006108652451075613
1784821989063498500,3.33849853515625,0.010995574295520782,0.018325956538319588,-0.009162978269159794
1784821989073498400,3.348498291015625,0.018936822190880775,0.007941247895359993,-0.016493361443281174
1784821989083498500,3.35849853515625,0.02626720629632473,0.00427605677396059,-0.022602014243602753
1784821989093498400,3.368498291015625,0.02932153269648552,0.00733038317412138,-0.02626720629632473
1784821989103498500,3.37849853515625,0.030543262138962746,0.00427605677396059,-0.02932153269648552
1784821989113499400,3.38849951171875,0.025656340643763542,0.00366519158706069,-0.02687807008624077
1784821989123499300,3.398499267578125,0.013439035043120384,0.004886921960860491,-0.018936822190880775
1784821989133499400,3.40849951171875,-0.004886921960860491,0.003054326167330146,-0.0024434609804302454
1784821989143499300,3.418499267578125,-0.006719517521560192,0.0006108652451075613,0.012828170321881771
1784821989153499400,3.42849951171875,-0.001832595793530345,0.006719517521560192,0.021991148591041565
1784821989163499300,3.438499267578125,0.00427605677396059,0.014049900695681572,0.025656340643763542
1784821989173499400,3.44849951171875,0.01160643994808197,0.01771509274840355,0.02382374368607998
1784821989183499300,3.458499267578125,0.015882495790719986,0.02015855349600315,0.02015855349600315
1784821989193499400,3.46849951171875,0.016493361443281174,0.015882495790719986,0.02076941914856434
1784821989203499300,3.478499267578125,0.012217304669320583,0.01160643994808197,0.02321287989616394
1784821989213498400,3.488498291015625,0.006108652334660292,0.006108652334660292,0.02382374368607998
1784821989223498500,3.49849853515625,0.0024434609804302454,-0.006108652334660292,0.021991148591041565
1784821989233498400,3.508498291015625,0,-0.009162978269159794,0.014049900695681572
1784821989243498500,3.51849853515625,-0.005497787147760391,-0.00427605677396059,0.0006108652451075613
1784821989253498400,3.528498291015625,-0.015882495790719986,0.00733038317412138,-0.01466076634824276
1784821989263498500,3.53849853515625,-0.022602014243602753,0.016493361443281174,-0.02687807008624077
1784821989273498600,3.54849853515625,-0.015271631069481373,-0.001832595793530345,-0.03298672288656235
1784821989283498500,3.55849853515625,0.005497787147760391,-0.0507018156349659,-0.02932153269648552
1784821989293498600,3.56849853515625,0.006108652334660292,-0.04459316283464432,-0.010995574295520782
1784821989303498500,3.57849853515625,-0.0006108652451075613,-0.015271631069481373,0.009162978269159794
1784821989313499400,3.58849951171875,-0.005497787147760391,-0.009773843921720982,0.03298672288656235
1784821989323499300,3.598499267578125,-0.015271631069481373,-0.04153883829712868,0.060475658625364304
1784821989333499400,3.60849951171875,-0.027488935738801956,-0.0806342139840126,0.08491026610136032
1784821989343499300,3.618499267578125,-0.03237585723400116,-0.10506882518529892,0.1007927656173706
1784821989353499400,3.62849951171875,-0.03176499158143997,-0.10567969083786011,0.10934487730264664
1784821989363499300,3.638499267578125,-0.02076941914856434,-0.10873401165008545,0.11423180252313614
1784821989373499400,3.64849951171875,0.0012217304902151227,-0.12767083942890167,0.11911872029304504
1784821989383499300,3.658499267578125,0.031154127791523933,-0.15882496535778046,0.12950342893600464
1784821989393499400,3.66849951171875,0.06291911751031876,-0.18631389737129211,0.14966198801994324
1784821989403499300,3.678499267578125,0.07880161702632904,-0.18509216606616974,0.17348572611808777
1784821989413498400,3.688498291015625,0.06902777403593063,-0.1765400618314743,0.21074850857257843
1784821989423498500,3.69849853515625,0.06230825558304787,-0.1869247704744339,0.25473082065582275
1784821989433498400,3.708498291015625,0.07024950534105301,-0.22296582162380219,0.2877175211906433
1784821989443498500,3.71849853515625,0.08552113175392151,-0.24007004499435425,0.294437050819397
1784821989453498400,3.728498291015625,0.11972958594560623,-0.252287358045578,0.3121521472930908
1784821989463498500,3.73849853515625,0.17104226350784302,-0.3439171314239502,0.36590829491615295
1784821989473498400,3.748498291015625,0.15515977144241333,-0.35674530267715454,0.3549126982688904
1784821989483498500,3.75849853515625,0.10201449692249298,-0.30543261766433716,0.3090978264808655
1784821989493498400,3.768498291015625,0.06658431142568588,-0.28588494658470154,0.2217440903186798
1784821989503498500,3.77849853515625,0.039706241339445114,-0.24007004499435425,0.0959058403968811
1784821989513499400,3.78849951171875,0.028099801391363144,-0.1466076523065567,-0.0555887371301651
1784821989523499300,3.798499267578125,0.018325956538319588,-0.027488935738801956,-0.22418753802776337
1784821989533499400,3.80849951171875,0.01038470957428217,0.09529497474431992,-0.3897320330142975
1784821989543499300,3.818499267578125,0.010995574295520782,0.19120082259178162,-0.5283984541893005
1784821989553499400,3.82849951171875,-0.0006108652451075613,0.23396138846874237,-0.6188064813613892
1784821989563499300,3.838499267578125,-0.018936822190880775,0.22296582162380219,-0.6542366743087769
1784821989573499400,3.84849951171875,-0.031154127791523933,0.16982053220272064,-0.6493497490882874
1784821989583499300,3.858499267578125,-0.02687807008624077,0.11850785464048386,-0.6133087277412415
1784821989593499400,3.86849951171875,0.00733038317412138,0.05864306539297104,-0.5375614166259766
1784821989603499300,3.878499267578125,0.015882495790719986,0.04642575979232788,-0.48380526900291443
1784821989613498400,3.888498291015625,0.02015855349600315,0.06475171446800232,-0.42760565876960754
1784821989623498500,3.89849853515625,0.018936822190880775,0.08918632566928864,-0.37568211555480957
1784821989633498400,3.908498291015625,-0.0024434609804302454,0.10812314599752426,-0.34025195240974426
1784821989643498500,3.91849853515625,-0.02626720629632473,0.11056660860776901,-0.33292156457901
1784821989653498400,3.928498291015625,-0.031154127791523933,0.10506882518529892,-0.34697145223617554
1784821989663498500,3.93849853515625,-0.021991148591041565,0.06963863968849182,-0.37201693654060364
1784821989673498400,3.948498291015625,-0.015882495790719986,0.01160643994808197,-0.40683624148368835
1784821989683498500,3.95849853515625,-0.021380282938480377,-0.027488935738801956,-0.4453207552433014
1784821989693498400,3.968498291015625,-0.033597588539123535,-0.02932153269648552,-0.48197266459465027
1784821989703498500,3.97849853515625,-0.05375614017248154,-0.019547687843441963,-0.5186246037483215
1784821989713499400,3.98849951171875,-0.0708603709936142,0.021991148591041565,-0.5442809462547302
1784821989723499300,3.998499267578125,-0.0659734457731247,0.07880161702632904,-0.5345070958137512
1784821989733499400,4.00849951171875,-0.05925392732024193,0.11728613078594208,-0.4911356568336487
1784821989743499300,4.018499267578125,-0.06841690838336945,0.15393804013729095,-0.4092797040939331
1784821989753499400,4.02849951171875,-0.07635815441608429,0.15882496535778046,-0.3591887652873993
1784821989763499300,4.038499267578125,-0.08185594528913498,0.13561208546161652,-0.31459560990333557
1784821989773499100,4.0484990234375,-0.09285151958465576,0.07269296050071716,-0.2883284091949463
1784821989783499300,4.058499267578125,-0.12095131725072861,-0.0024434609804302454,-0.29077184200286865
1784821989793499100,4.0684990234375,-0.15515977144241333,-0.0507018156349659,-0.3078760802745819
1784821989803499300,4.078499267578125,-0.18875735998153687,-0.07513642311096191,-0.32559117674827576
1784821989813498400,4.088498291015625,-0.2021963894367218,-0.07513642311096191,-0.33047810196876526
1784821989823498200,4.098498291015625,-0.2070833146572113,-0.08429940044879913,-0.323147714138031
1784821989833498400,4.108498291015625,-0.2015855312347412,-0.12034045159816742,-0.3072652220726013
1784821989843498200,4.118498291015625,-0.18325957655906677,-0.18325957655906677,-0.29077184200286865
1784821989853498400,4.128498291015625,-0.15393804013729095,-0.22296582162380219,-0.2883284091949463
1784821989863498200,4.138498291015625,-0.11545353382825851,-0.1563815027475357,-0.2974913716316223
1784821989873498400,4.148498291015625,-0.06169738993048668,-0.03787364438176155,-0.294437050819397
1784821989883498200,4.158498291015625,-0.015882495790719986,0.060475658625364304,-0.2583959996700287
1784821989893498400,4.168498291015625,0.0024434609804302454,0.11789698898792267,-0.16982053220272064
1784821989903498200,4.178498291015625,0.012217304669320583,0.07391469180583954,-0.12278391420841217
1784821989913499100,4.1884990234375,0.025656340643763542,-0.005497787147760391,-0.08979719132184982
1784821989923499000,4.1984990234375,0.03420845419168472,-0.11789698898792267,-0.0507018156349659
1784821989933499100,4.2084990234375,0.04398229718208313,-0.2632829248905182,0.015271631069481373
1784821989943499000,4.2184990234375,0.029932396486401558,-0.4178318381309509,0.11301007121801376
1784821989953499100,4.2284990234375,0.004886921960860491,-0.5522221922874451,0.22968533635139465
1784821989963499000,4.2384990234375,-0.009773843921720982,-0.7024950385093689,0.3335324227809906
1784821989973499100,4.2484990234375,-0.036041051149368286,-0.8356636762619019,0.3799581825733185
1784821989983499000,4.2584990234375,-0.08552113175392151,-0.8155050873756409,0.33047810196876526
1784821989993499100,4.2684990234375,-0.14294247329235077,-0.6670648455619812,0.16065755486488342
1784821990003499000,4.2784990234375,-0.19853121042251587,-0.42271876335144043,-0.08307767659425735
1784821990013498400,4.288498291015625,-0.2278527319431305,-0.09162978827953339,-0.35185837745666504
1784821990023498200,4.298498291015625,-0.22113321721553802,0.25534167885780334,-0.607200026512146
1784821990033498400,4.308498291015625,-0.17898350954055786,0.5815436840057373,-0.7953465580940247
1784821990043498200,4.318498291015625,-0.11484266817569733,0.8484918475151062,-0.8936958312988281
1784821990053498400,4.328498291015625,0.013439035043120384,0.9743300676345825,-0.8436049222946167
1784821990063498200,4.338498291015625,0.08796459436416626,0.8093964457511902,-0.7281513810157776
1784821990073498400,4.348498291015625,0.11972958594560623,0.5229006409645081,-0.6133087277412415
1784821990083498500,4.35849853515625,0.11545353382825851,0.19486601650714874,-0.5357288122177124
1784821990093498400,4.368498291015625,0.09040805697441101,-0.09773843735456467,-0.5125159621238708
1784821990103498500,4.37849853515625,0.039095375686883926,-0.2431243658065796,-0.53328537940979
1784821990113499400,4.38849951171875,-0.0354301854968071,-0.23640485107898712,-0.5803219676017761
1784821990123499300,4.398499267578125,-0.11239920556545258,-0.04459316283464432,-0.6188064813613892
1784821990133499400,4.40849951171875,-0.1466076523065567,0.2064724564552307,-0.6194173693656921
1784821990143499300,4.418499267578125,-0.12339477986097336,0.4178318381309509,-0.5742133259773254
1784821990153499400,4.42849951171875,-0.06414084881544113,0.5265658497810364,-0.4966334402561188
1784821990163499300,4.438499267578125,0.003054326167330146,0.4948008358478546,-0.4184426963329315
1784821990173499400,4.44849951171875,0.059864792972803116,0.3683517575263977,-0.3701843321323395
1784821990183499300,4.458499267578125,0.09712757170200348,0.22052235901355743,-0.3701843321323395
1784821990193499400,4.46849951171875,0.13072516024112701,0.08918632566928864,-0.3933972120285034
1784821990203499300,4.478499267578125,0.1459967941045761,-0.03787364438176155,-0.43188172578811646
1784821990213498400,4.488498291015625,0.12522737681865692,-0.029932396486401558,-0.43127086758613586
1784821990223498500,4.49849853515625,0.10201449692249298,0.01771509274840355,-0.41111230850219727
1784821990233498400,4.508498291015625,0.08735372871160507,0.10201449692249298,-0.3799581825733185
1784821990243498500,4.51849853515625,0.0806342139840126,0.1820378452539444,-0.34208452701568604
1784821990253498400,4.528498291015625,0.08246681094169617,0.251676470041275,-0.3084869384765625
1784821990263498500,4.53849853515625,0.09224065393209457,0.27611109614372253,-0.2932153046131134
1784821990273498400,4.548498291015625,0.09896016865968704,0.27122417092323303,-0.303600013256073
1784821990283498500,4.55849853515625,0.10934487730264664,0.24068090319633484,-0.3237585723400116
1784821990293498400,4.568498291015625,0.1362229436635971,0.20097467303276062,-0.33047810196876526
1784821990303498500,4.57849853515625,0.17898350954055786,0.18081611394882202,-0.3237585723400116
1784821990313499400,4.58849951171875,0.21563543379306793,0.18814650177955627,-0.29504790902137756
1784821990323499300,4.598499267578125,0.23640485107898712,0.18875735998153687,-0.24495697021484375
1784821990333499400,4.60849951171875,0.24495697021484375,0.1612684279680252,-0.18997909128665924
1784821990343499300,4.618499267578125,0.24678955972194672,0.13500121235847473,-0.1417207419872284
1784821990353499400,4.62849951171875,0.23029619455337524,0.0757472887635231,-0.07696902006864548
1784821990363499300,4.638499267578125,0.2168571650981903,0.01771509274840355,-0.031154127791523933
1784821990373499400,4.64849951171875,0.22907446324825287,-0.024434609338641167,0.025045474991202354
1784821990383499300,4.658499267578125,0.26633724570274353,-0.006719517521560192,0.10262536257505417
1784821990393499400,4.66849951171875,0.32131510972976685,0.042760565876960754,0.19792033731937408
1784821990403499300,4.678499267578125,0.3689626157283783,0.10812314599752426,0.3017674386501312
1784821990413498400,4.688498291015625,0.3988949954509735,0.15760323405265808,0.3982841372489929
1784821990423498500,4.69849853515625,0.41661009192466736,0.17043140530586243,0.48258355259895325
1784821990433498400,4.708498291015625,0.44165557622909546,0.13072516024112701,0.5577199459075928
1784821990443498500,4.71849853515625,0.4703662395477295,0.04948008432984352,0.618195652961731
1784821990453498400,4.728498291015625,0.49235737323760986,-0.03237585723400116,0.6542366743087769
1784821990463498500,4.73849853515625,0.4954117238521576,-0.06414084881544113,0.6682865619659424
1784821990473498400,4.748498291015625,0.47769662737846375,-0.07269296050071716,0.6823364496231079
1784821990483498500,4.75849853515625,0.46670106053352356,-0.07452555745840073,0.7086036801338196
1784821990493498400,4.768498291015625,0.49296826124191284,-0.09529497474431992,0.7348709106445312
1784821990503498500,4.77849853515625,0.5839871764183044,-0.1667662113904953,0.7373143434524536
1784821990513499100,4.7884990234375,0.6493497490882874,-0.20402899384498596,0.7092145681381226
1784821990523499300,4.798499267578125,0.6921103000640869,-0.19425514340400696,0.6493497490882874
1784821990533466000,4.808466064453125,0.6988298296928406,-0.17409659922122955,0.6108652353286743
1784821990543432700,4.8184326171875,0.6640105247497559,-0.04642575979232788,0.4789183437824249
1784821990553399300,4.8283994140625,0.6133087277412415,0.08491026610136032,0.3927863538265228
1784821990563366000,4.838365966796875,0.5632177591323853,0.19853121042251587,0.32070425152778625
1784821990573332700,4.848332763671875,0.5424483418464661,0.24068090319633484,0.2822197377681732
1784821990583299300,4.85829931640625,0.5552765130996704,0.21135938167572021,0.26450464129447937
1784821990593266000,4.868265869140625,0.6035348773002625,0.15027284622192383,0.2669481039047241
1784821990603232800,4.878232666015625,0.6572909951210022,0.08857546001672745,0.3017674386501312
1784821990613198300,4.8881982421875,0.6914994716644287,0.05803219974040985,0.3640756905078888
1784821990623165200,4.898165283203125,0.6957755088806152,0.05864306539297104,0.44104471802711487
1784821990633131800,4.9081318359375,0.6731734871864319,0.06902777403593063,0.5198463201522827
1784821990643098400,4.918098388671875,0.617584764957428,0.10995574295520782,0.5876523852348328
1784821990653065200,4.928065185546875,0.5345070958137512,0.1508837193250656,0.6383541822433472
1784821990663031800,4.93803173828125,0.4447098970413208,0.15027284622192383,0.6786713004112244
1784821990672998400,4.947998291015625,0.3842342495918274,0.10995574295520782,0.6988298296928406
1784821990682965000,4.957965087890625,0.35552358627319336,0.0507018156349659,0.694553792476654
1784821990692931800,4.967931884765625,0.3683517575263977,-0.07330382615327835,0.6780604124069214
1784821990702898400,4.9778984375,0.3799581825733185,-0.14355333149433136,0.6536257863044739
1784821990712866000,4.987865966796875,0.37079519033432007,-0.14966198801994324,0.6139195561408997
1784821990722832600,4.99783251953125,0.3439171314239502,-0.08979719132184982,0.5644394755363464
1784821990732799200,5.00779931640625,0.3066543638706207,-0.0024434609804302454,0.49296826124191284
1784821990742766000,5.01776611328125,0.2791654169559479,0.09712757170200348,0.39584067463874817
1784821990752732700,5.027732666015625,0.2724458873271942,0.1869247704744339,0.2834414839744568
1784821990762699300,5.03769921875,0.27488934993743896,0.2571742534637451,0.182648703455925
1784821990772665900,5.047665771484375,0.2565633952617645,0.3023782968521118,0.11178833991289139
1784821990782632700,5.0576328125,0.21502456068992615,0.32620203495025635,0.06230825558304787
1784821990792599300,5.067599365234375,0.15821409225463867,0.3634648323059082,0.05864306539297104
1784821990802566000,5.07756591796875,0.10567969083786011,0.39706242084503174,0.10567969083786011
1784821990812531700,5.08753173828125,0.07880161702632904,0.394008070230484,0.17592918872833252
1784821990822498300,5.097498291015625,0.09162978827953339,0.3543018400669098,0.242513507604599
1784821990832498400,5.10749853515625,0.1368338167667389,0.2779437005519867,0.2968805134296417
1784821990842498300,5.117498291015625,0.21013765037059784,0.10812314599752426,0.34208452701568604
1784821990852498400,5.12749853515625,0.24434609711170197,-0.013439035043120384,0.33597588539123535
1784821990862498300,5.137498291015625,0.26083946228027344,-0.09407325088977814,0.30115658044815063
1784821990872498400,5.14749853515625,0.2590068578720093,-0.11423180252313614,0.22663100063800812
1784821990882498300,5.157498291015625,0.2376265823841095,-0.05314527451992035,0.11728613078594208
1784821990892498400,5.16749853515625,0.20341812074184418,0.07696902006864548,0.005497787147760391
1784821990902498300,5.177498291015625,0.16920967400074005,0.23029619455337524,-0.054367005825042725
1784821990912499200,5.187499267578125,0.14782938361167908,0.34147366881370544,-0.059864792972803116
1784821990922499300,5.197499267578125,0.15271630883216858,0.38117989897727966,-0.025656340643763542
1784821990932499200,5.207499267578125,0.17837265133857727,0.3677408695220947,0.010995574295520782
1784821990942499300,5.217499267578125,0.20830504596233368,0.33475416898727417,0.042760565876960754
1784821990952499200,5.227499267578125,0.23151792585849762,0.2877175211906433,0.06963863968849182
1784821990962499300,5.237499267578125,0.25106561183929443,0.2431243658065796,0.09468411654233932
1784821990972498400,5.24749853515625,0.27550023794174194,0.19058994948863983,0.1258382350206375
1784821990982498300,5.257498291015625,0.303600013256073,0.13072516024112701,0.16065755486488342
1784821990992498400,5.26749853515625,0.3390302062034607,0.03237585723400116,0.21135938167572021
1784821991002498300,5.277498291015625,0.33536502718925476,-0.0012217304902151227,0.21380282938480377
1784821991012497400,5.287497314453125,0.3029891550540924,0.00427605677396059,0.17348572611808777
1784821991022497500,5.29749755859375,0.26572638750076294,0.019547687843441963,0.1111774742603302
1784821991032497400,5.307497314453125,0.22418753802776337,0.009773843921720982,0.04642575979232788
1784821991042497500,5.31749755859375,0.19486601650714874,-0.01160643994808197,0.0006108652451075613
1784821991052497400,5.327497314453125,0.1869247704744339,-0.005497787147760391,-0.018325956538319588
1784821991062497500,5.33749755859375,0.18020524084568024,0.027488935738801956,-0.02382374368607998
1784821991072497400,5.347497314453125,0.17531833052635193,0.04153883829712868,-0.025656340643763542
1784821991082497500,5.35749755859375,0.1771509200334549,0.031154127791523933,-0.036651913076639175
1784821991092497400,5.367497314453125,0.17409659922122955,0.009162978269159794,-0.08124507963657379
1784821991102497500,5.37749755859375,0.16554448008537292,-0.010995574295520782,-0.1362229436635971
1784821991112498400,5.38749853515625,0.14416420459747314,0,-0.1716531366109848
1784821991122498300,5.397498291015625,0.12217304855585098,0.025656340643763542,-0.18081611394882202
1784821991132498400,5.40749853515625,0.1111774742603302,0.004886921960860491,-0.17898350954055786
1784821991142498300,5.417498291015625,0.13927727937698364,-0.048258353024721146,-0.1722639948129654
1784821991152498400,5.42749853515625,0.20402899384498596,-0.03237585723400116,-0.13744467496871948
1784821991162498300,5.437498291015625,0.22663100063800812,-0.028099801391363144,-0.1215621829032898
1784821991172498400,5.44749853515625,0.21380282938480377,0.05314527451992035,-0.11362093687057495
1784821991182498300,5.457498291015625,0.18509216606616974,0.18936823308467865,-0.11362093687057495
1784821991192498400,5.46749853515625,0.17592918872833252,0.2877175211906433,-0.12217304855585098
1784821991202498300,5.477498291015625,0.19608774781227112,0.3139847218990326,-0.1466076523065567
1784821991212497400,5.487497314453125,0.23579397797584534,0.3017674386501312,-0.1716531366109848
1784821991222497500,5.49749755859375,0.26939156651496887,0.29016098380088806,-0.18997909128665924
1784821991232497400,5.507497314453125,0.2828305959701538,0.26145032048225403,-0.20830504596233368
1784821991242497500,5.51749755859375,0.2791654169559479,0.23029619455337524,-0.23457226157188416
1784821991252497400,5.527497314453125,0.2785545587539673,0.1973094791173935,-0.2724458873271942
1784821991262497500,5.53749755859375,0.2773328125476837,0.15882496535778046,-0.3182607889175415
1784821991272498400,5.54749853515625,0.2779437005519867,0.13744467496871948,-0.34758231043815613
1784821991282498300,5.557498291015625,0.27977627515792847,0.14049901068210602,-0.3433062732219696
1784821991292498400,5.56749853515625,0.2828305959701538,0.13255776464939117,-0.31154128909111023
1784821991302498300,5.577498291015625,0.3029891550540924,0.10201449692249298,-0.2321287989616394
1784821991312499200,5.587499267578125,0.33292156457901,0.12095131725072861,-0.1667662113904953
1784821991322499000,5.5974990234375,0.37629300355911255,0.1368338167667389,-0.11484266817569733
1784821991332499200,5.607499267578125,0.4141666293144226,0.16920967400074005,-0.08307767659425735
1784821991342499000,5.6174990234375,0.4349360466003418,0.22052235901355743,-0.06536258012056351
1784821991352499200,5.627499267578125,0.44593164324760437,0.2480112910270691,-0.04581489413976669
1784821991362499000,5.6374990234375,0.4440990388393402,0.24007004499435425,-0.04642575979232788
1784821991372499200,5.647499267578125,0.4386012554168701,0.19425514340400696,-0.0757472887635231
1784821991382499000,5.6574990234375,0.43249258399009705,0.15821409225463867,-0.11423180252313614
1784821991392499200,5.667499267578125,0.41661009192466736,0.14233160018920898,-0.15943582355976105
1784821991402499000,5.6774990234375,0.39095374941825867,0.11911872029304504,-0.2076941877603531
1784821991412498400,5.68749853515625,0.3634648323059082,0.09896016865968704,-0.23273965716362
1784821991422498300,5.697498291015625,0.34208452701568604,0.11056660860776901,-0.21930062770843506
1784821991432498400,5.70749853515625,0.32986724376678467,0.13744467496871948,-0.17959438264369965
1784821991442498300,5.717498291015625,0.33658674359321594,0.16493362188339233,-0.1264491081237793
1784821991452498400,5.72749853515625,0.3695734739303589,0.3072652220726013,-0.04764748737215996
1784821991462498300,5.737498291015625,0.3897320330142975,0.3885102868080139,-0.031154127791523933
1784821991472498400,5.74749853515625,0.4147774875164032,0.38667771220207214,-0.03726277872920036
1784821991482498300,5.757498291015625,0.44287729263305664,0.3090978264808655,-0.036651913076639175
1784821991492498400,5.76749853515625,0.4550946056842804,0.18448130786418915,-0.039706241339445114
1784821991502498300,5.777498291015625,0.4502076804637909,0.059864792972803116,-0.04092797264456749
1784821991512499200,5.787499267578125,0.43188172578811646,-0.03176499158143997,-0.03726277872920036
1784821991522499300,5.797499267578125,0.4098905920982361,-0.05253441259264946,-0.031154127791523933
1784821991532499200,5.807499267578125,0.39217549562454224,-0.006719517521560192,-0.028099801391363144
1784821991542499300,5.817499267578125,0.384845107793808,0.08735372871160507,-0.010995574295520782
1784821991552499200,5.827499267578125,0.38240164518356323,0.1820378452539444,0.01710422709584236
1784821991562499300,5.837499267578125,0.384845107793808,0.22479841113090515,0.039706241339445114
1784821991572500200,5.847500244140625,0.39584067463874817,0.19425514340400696,0.07024950534105301
1784821991582500000,5.8575,0.40744712948799133,0.1258382350206375,0.10323622822761536
1784821991592500200,5.867500244140625,0.4239404797554016,0.06719517707824707,0.13866640627384186
1784821991602500000,5.8775,0.45875978469848633,0.02321287989616394,0.192422553896904
1784821991612499200,5.887499267578125,0.4813618063926697,0.02321287989616394,0.192422553896904
1784821991622499300,5.897499267578125,0.5119050741195679,0.05864306539297104,0.16982053220272064
1784821991632499200,5.907499267578125,0.5479460954666138,0.10567969083786011,0.14477506279945374
1784821991642499300,5.917499267578125,0.5931501388549805,0.13316862285137177,0.14844025671482086
1784821991652499200,5.927499267578125,0.6352998614311218,0.13744467496871948,0.17592918872833252
1784821991662499300,5.937499267578125,0.6609562039375305,0.11850785464048386,0.19058994948863983
1784821991672499200,5.947499267578125,0.6762278079986572,0.11484266817569733,0.18814650177955627
1784821991682499300,5.957499267578125,0.6982190012931824,0.13866640627384186,0.17287486791610718
1784821991692499200,5.967499267578125,0.7275404930114746,0.19792033731937408,0.1563815027475357
1784821991702499300,5.977499267578125,0.7580837607383728,0.26633724570274353,0.14416420459747314
1784821991712500200,5.987500244140625,0.7947356700897217,0.3078760802745819,0.13072516024112701
1784821991722500000,5.9975,0.837496280670166,0.3194825351238251,0.11789698898792267
1784821991732500200,6.007500244140625,0.8863654732704163,0.30543261766433716,0.10995574295520782
1784821991742500000,6.0175,0.9297369122505188,0.2718350291252136,0.09529497474431992
1784821991752500200,6.027500244140625,0.9590584635734558,0.23457226157188416,0.07635815441608429
1784821991762500000,6.0375,0.9944885969161987,0.23884831368923187,0.059864792972803116
1784821991772500200,6.047500244140625,1.004873275756836,0.2816088795661926,0.054367005825042725
1784821991782500000,6.0575,1.015868902206421,0.32131510972976685,0.05864306539297104
1784821991792500200,6.067500244140625,1.036027431488037,0.3494149148464203,0.06780604273080826
1784821991802500000,6.0775,1.0616837739944458,0.36224308609962463,0.07513642311096191
1784821991812499200,6.087499267578125,1.081842303276062,0.3536909818649292,0.08185594528913498
1784821991822499300,6.097499267578125,1.092837929725647,0.33536502718925476,0.08857546001672745
1784821991832499200,6.107499267578125,1.0800096988677979,0.31154128909111023,0.09162978827953339
1784821991842499300,6.117499267578125,1.045190453529358,0.303600013256073,0.08979719132184982
1784821991852499200,6.127499267578125,1.0042624473571777,0.2987131178379059,0.09468411654233932
1784821991862499300,6.137499267578125,0.960280179977417,0.28466320037841797,0.10323622822761536
1784821991872498400,6.14749853515625,0.9187413454055786,0.2590068578720093,0.10323622822761536
1784821991882498300,6.157498291015625,0.8869763612747192,0.24495697021484375,0.09040805697441101
1784821991892498400,6.16749853515625,0.8649851679801941,0.24923302233219147,0.05925392732024193
1784821991902498300,6.177498291015625,0.856433093547821,0.27000242471694946,0.015882495790719986
1784821991912499200,6.187499267578125,0.8546004891395569,0.31520646810531616,-0.07269296050071716
1784821991922499300,6.197499267578125,0.8521569967269897,0.3237585723400116,-0.1264491081237793
1784821991932499200,6.207499267578125,0.8472700715065002,0.32986724376678467,-0.15515977144241333
1784821991942499300,6.217499267578125,0.8326093554496765,0.32009339332580566,-0.15760323405265808
1784821991952499200,6.227499267578125,0.8087855577468872,0.31520646810531616,-0.1466076523065567
1784821991962499300,6.237499267578125,0.788627028465271,0.35063666105270386,-0.10445795953273773
1784821991972499200,6.247499267578125,0.7678576111793518,0.413555771112442,-0.04337143152952194
1784821991982499300,6.257499267578125,0.7379252314567566,0.45142942667007446,0.01160643994808197
1784821991992499200,6.267499267578125,0.7098253965377808,0.455705463886261,0.06352998316287994
1784821992002499300,6.277499267578125,0.6908885836601257,0.4331034719944,0.10873401165008545
1784821992012498400,6.28749853515625,0.6701191663742065,0.3738495409488678,0.1313360333442688
1784821992032498400,6.30749853515625,0.637132465839386,0.3023782968521118,0.13561208546161652
1784821992042498300,6.317498291015625,0.6285803318023682,0.3170390725135803,0.1313360333442688
1784821992052498400,6.32749853515625,0.626747727394104,0.3237585723400116,0.11178833991289139
1784821992062498300,6.337498291015625,0.6322455406188965,0.3323107063770294,0.06414084881544113
1784821992072498400,6.34749853515625,0.626747727394104,0.3481931984424591,0.021380282938480377
1784821992082498300,6.357498291015625,0.6029239892959595,0.3628539443016052,-0.013439035043120384
1784821992092498400,6.36749853515625,0.5699372887611389,0.39217549562454224,-0.01038470957428217
1784821992102498300,6.377498291015625,0.5406157374382019,0.3897320330142975,0.02321287989616394
1784821992112499200,6.387499267578125,0.5149593949317932,0.35613444447517395,0.07452555745840073
1784821992122499300,6.397499267578125,0.4911356568336487,0.32131510972976685,0.11178833991289139
1784821992132499200,6.407499267578125,0.4709770977497101,0.29626965522766113,0.12828169763088226
1784821992142499300,6.417499267578125,0.4550946056842804,0.28466320037841797,0.11789698898792267
1784821992152499200,6.427499267578125,0.4386012554168701,0.2736676335334778,0.0910189226269722
1784821992162499300,6.437499267578125,0.4282165467739105,0.26022860407829285,0.06291911751031876
1784821992172499200,6.447499267578125,0.4190535545349121,0.22602014243602753,0.031154127791523933
1784821992182499300,6.457499267578125,0.403781920671463,0.1814269721508026,0.001832595793530345
1784821992192499200,6.467499267578125,0.39217549562454224,0.16554448008537292,-0.006719517521560192
1784821992202499300,6.477499267578125,0.37690386176109314,0.1716531366109848,-0.00366519158706069
1784821992212498400,6.48749853515625,0.36224308609962463,0.18936823308467865,0.006719517521560192
1784821992222498300,6.497498291015625,0.3286454975605011,0.2541199326515198,0.04398229718208313
1784821992232498400,6.50749853515625,0.30482175946235657,0.26083946228027344,0.07635815441608429
1784821992242498300,6.517498291015625,0.28588494658470154,0.2370157092809677,0.09651670604944229
1784821992252498400,6.52749853515625,0.2834414839744568,0.20036379992961884,0.10201449692249298
1784821992262498300,6.537498291015625,0.28955012559890747,0.15271630883216858,0.09040805697441101
1784821992272498400,6.54749853515625,0.29138273000717163,0.1014036312699318,0.0659734457731247
1784821992282498300,6.557498291015625,0.2877175211906433,0.08002334833145142,0.05497787147760391
1784821992292498400,6.56749853515625,0.27550023794174194,0.0708603709936142,0.05864306539297104
1784821992302498300,6.577498291015625,0.2535090744495392,0.04948008432984352,0.05803219974040985
1784821992312499200,6.587499267578125,0.22968533635139465,0.0403171069920063,0.04459316283464432
1784821992322499300,6.597499267578125,0.21563543379306793,0.06475171446800232,0.03726277872920036
1784821992332499200,6.607499267578125,0.20341812074184418,0.09773843735456467,0.03237585723400116
1784821992342499300,6.617499267578125,0.19303341209888458,0.11423180252313614,0.03176499158143997
1784821992352499200,6.627499267578125,0.18387043476104736,0.11911872029304504,0.03481931984424591
1784821992362499300,6.637499267578125,0.17837265133857727,0.11545353382825851,0.04092797264456749
1784821992372499200,6.647499267578125,0.1722639948129654,0.1014036312699318,0.04214970022439957
1784821992382499300,6.657499267578125,0.1563815027475357,0.07269296050071716,0.04398229718208313
1784821992392499200,6.667499267578125,0.13072516024112701,0.056810468435287476,0.04764748737215996
1784821992402499300,6.677499267578125,0.10812314599752426,0.04153883829712868,0.04459316283464432
1784821992412498400,6.68749853515625,0.09407325088977814,0.015882495790719986,0.04092797264456749
1784821992422498300,6.697498291015625,0.0757472887635231,-0.01710422709584236,0.02871066704392433
1784821992432498400,6.70749853515625,0.059864792972803116,-0.036041051149368286,0.014049900695681572
1784821992442498300,6.717498291015625,0.05314527451992035,-0.04153883829712868,-0.00366519158706069
1784821992452498400,6.72749853515625,0.05375614017248154,-0.03237585723400116,-0.025045474991202354
1784821992462498300,6.737498291015625,0.06108652427792549,-0.006719517521560192,-0.04703662544488907
1784821992472498400,6.74749853515625,0.06780604273080826,0.031154127791523933,-0.060475658625364304
1784821992482498300,6.757498291015625,0.06169738993048668,0.04703662544488907,-0.0659734457731247
1784821992492498400,6.76749853515625,0.05253441259264946,0.039095375686883926,-0.06414084881544113
1784821992502498300,6.777498291015625,0.04764748737215996,0.0507018156349659,-0.048258353024721146
1784821992512499200,6.787499267578125,0.0403171069920063,0.06352998316287994,-0.04214970022439957
1784821992522499300,6.797499267578125,0.036651913076639175,0.05925392732024193,-0.04703662544488907
1784821992532499200,6.807499267578125,0.045204028487205505,0.0555887371301651,-0.03420845419168472
1784821992542499300,6.817499267578125,0.04092797264456749,0.031154127791523933,-0.019547687843441963
1784821992552499200,6.827499267578125,0.02871066704392433,0.009773843921720982,-0.010995574295520782
1784821992562499300,6.837499267578125,0.009773843921720982,-0.00855211354792118,-0.012217304669320583
1784821992572499200,6.847499267578125,-0.005497787147760391,-0.01160643994808197,-0.01771509274840355
1784821992582499300,6.857499267578125,-0.016493361443281174,0.006108652334660292,-0.007941247895359993
1784821992592499200,6.867499267578125,-0.03298672288656235,0.014049900695681572,0.022602014243602753
1784821992602499300,6.877499267578125,-0.05314527451992035,0.014049900695681572,0.05925392732024193
1784821992612498400,6.88749853515625,-0.06780604273080826,0.014049900695681572,0.08002334833145142
1784821992622498300,6.897498291015625,-0.07147123664617538,0.012828170321881771,0.08857546001672745
1784821992632498400,6.90749853515625,-0.07819075137376785,0.006108652334660292,0.08674286305904388
1784821992642498300,6.917498291015625,-0.08857546001672745,-0.009162978269159794,0.07208210229873657
1784821992652498400,6.92749853515625,-0.1007927656173706,0.00733038317412138,0.042760565876960754
1784821992662498300,6.937498291015625,-0.11301007121801376,0.02626720629632473,0.005497787147760391
1784821992672498400,6.94749853515625,-0.15577064454555511,0.001832595793530345,-0.033597588539123535
1784821992682498300,6.957498291015625,-0.16920967400074005,0.01771509274840355,-0.051312681287527084
1784821992692498400,6.96749853515625,-0.1618792861700058,0.00427605677396059,-0.07757988572120667
1784821992702498600,6.97749853515625,-0.14294247329235077,-0.0006108652451075613,-0.07696902006864548
1784821992712499200,6.987499267578125,-0.1264491081237793,-0.03787364438176155,-0.06780604273080826
1784821992722499300,6.997499267578125,-0.10751228034496307,-0.05742133408784866,-0.06475171446800232
1784821992732499200,7.007499267578125,-0.1007927656173706,-0.04642575979232788,-0.060475658625364304
1784821992742499300,7.017499267578125,-0.11667526513338089,-0.04581489413976669,-0.05375614017248154
1784821992752499200,7.027499267578125,-0.14538592100143433,-0.06963863968849182,-0.04948008432984352
1784821992762499300,7.037499267578125,-0.16554448008537292,-0.09834930300712585,-0.04092797264456749
1784821992772499200,7.047499267578125,-0.17104226350784302,-0.12461651116609573,-0.01466076634824276
1784821992782499300,7.057499267578125,-0.1765400618314743,-0.15271630883216858,0.02626720629632473
