time,seconds_elapsed,z,y,x
1784821985811120000,0.0861201171875,8.257901191711426,5.257966041564941,0.22266076505184174
1784821985821139200,0.09613916015625,8.152556419372559,5.243600845336914,0.13168109953403473
1784821985831139300,0.106139404296875,8.1046724319458,5.301061630249023,0.08619125932455063
1784821985841139200,0.11613916015625,8.090307235717773,5.279513835906982,0.0694318488240242
1784821985851139300,0.126139404296875,8.030451774597168,5.296273231506348,0.14844051003456116
1784821985861139200,0.13613916015625,8.011298179626465,5.284302234649658,0.2825157940387726
1784821985871139300,0.146139404296875,8.133402824401855,5.303455829620361,0.31842881441116333
1784821985881139200,0.15613916015625,8.25550651550293,5.2986674308776855,0.3232172429561615
1784821985891139300,0.166139404296875,8.238747596740723,5.269937038421631,0.3734954595565796
1784821985901139200,0.17613916015625,8.2219877243042,5.229235649108887,0.40462008118629456
1784821985911139300,0.186139404296875,8.269871711730957,5.243600845336914,0.4620809257030487
1784821985921139200,0.19613916015625,8.34409236907959,5.200505256652832,0.5578489899635315
1784821985931139300,0.206139404296875,8.408735275268555,5.183745861053467,0.5147533416748047
1784821985941139200,0.21613916015625,8.365639686584473,5.205293655395508,0.3423708379268646
1784821985951139300,0.226139404296875,8.224382400512695,5.24838924407959,0.2322375625371933
1784821985961139200,0.23613916015625,8.04002857208252,5.265148639678955,0.1843535304069519
1784821985971139300,0.246139404296875,7.984961986541748,5.238812446594238,0.10295066982507706
1784821985981139200,0.25613916015625,8.025663375854492,5.2124762535095215,0.1173158809542656
1784821985991139300,0.266139404296875,8.023268699645996,5.166986465454102,0.1628057211637497
1784821986001139200,0.27613916015625,8.008903503417969,5.131073474884033,0.2059013396501541
1784821986011137800,0.2861376953125,8.03763484954834,5.183745861053467,0.22266076505184174
1784821986021138000,0.296137939453125,7.963414192199707,5.159803867340088,0.31842881441116333
1784821986031138000,0.306137939453125,7.958625793457031,5.162198066711426,0.47405192255973816
1784821986041138000,0.316137939453125,8.142979621887207,5.126285076141357,0.6967126727104187
1784821986051138000,0.326137939453125,8.348880767822266,5.011363506317139,0.7972691655158997
1784821986061138000,0.336137939453125,8.521263122558594,5.047276496887207,0.6584054827690125
1784821986071138000,0.346137939453125,8.715193748474121,5.071218490600586,0.5219359993934631
1784821986081138000,0.356137939453125,8.803778648376465,5.071218490600586,0.4381389021873474
1784821986091138000,0.366137939453125,8.846874237060547,4.963479518890381,0.43095630407333374
1784821986101138000,0.376137939453125,8.777442932128906,4.9275665283203125,0.49320554733276367
1784821986111138000,0.386137939453125,8.691251754760742,4.881777286529541,0.47405192255973816
1784821986121138000,0.396137939453125,8.698433876037598,4.879383087158203,0.47405192255973816
1784821986131138000,0.406137939453125,8.676886558532715,4.903624534606934,0.4884171485900879
1784821986141138000,0.416137939453125,8.638579368591309,4.92996072769165,0.5051765441894531
1784821986151138000,0.426137939453125,8.561964988708496,4.913201332092285,0.507570743560791
1784821986161138000,0.436137939453125,8.480561256408691,4.862623691558838,0.47165772318840027
1784821986171138000,0.446137939453125,8.418312072753906,4.850652694702148,0.40940847992897034
1784821986181138000,0.456137939453125,8.494926452636719,4.9060187339782715,0.31603461503982544
1784821986191138000,0.466137939453125,8.55717658996582,4.879383087158203,0.30885201692581177
1784821986201138000,0.476137939453125,8.547599792480469,4.81473970413208,0.3519476354122162
1784821986211137000,0.486136962890625,8.482955932617188,4.819528102874756,0.3064578175544739
1784821986221137200,0.49613720703125,8.415918350219727,4.819528102874756,0.2561795711517334
1784821986231137000,0.506136962890625,8.396764755249023,4.824316501617432,0.24181437492370605
1784821986241137200,0.51613720703125,8.375216484069824,4.8267107009887695,0.24899697303771973
1784821986251137000,0.526136962890625,8.418312072753906,4.843470096588135,0.21547815203666687
1784821986261137200,0.53613720703125,8.43507194519043,4.855441093444824,0.24660277366638184
1784821986271137000,0.546136962890625,8.394370079040527,4.850652694702148,0.2825157940387726
1784821986281137200,0.55613720703125,8.305785179138184,4.821922302246094,0.2944868206977844
1784821986291137000,0.566136962890625,8.300996780395508,4.790797710418701,0.28730419278144836
1784821986301137200,0.57613720703125,8.31057357788086,4.771644115447998,0.2825157940387726
1784821986311138000,0.586137939453125,8.31057357788086,4.714183330535889,0.29209262132644653
1784821986321138000,0.596137939453125,8.406341552734375,4.7189717292785645,0.37828385829925537
1784821986331137800,0.6061376953125,8.482955932617188,4.72376012802124,0.40462008118629456
1784821986341138000,0.616137939453125,8.506897926330566,4.76924991607666,0.38307225704193115
1784821986351137800,0.6261376953125,8.538022994995117,4.838681697845459,0.26575639843940735
1784821986361138000,0.636137939453125,8.540416717529297,4.802768707275391,0.19871874153614044
1784821986371137800,0.6461376953125,8.50210952758789,4.721365928649902,0.21787235140800476
1784821986381138000,0.656137939453125,8.375216484069824,4.63517427444458,0.28969839215278625
1784821986391137800,0.6661376953125,8.28663158416748,4.577713489532471,0.42616790533065796
1784821986401138000,0.676137939453125,8.293813705444336,4.548983097076416,0.5602431893348694
1784821986411137000,0.686136962890625,8.334515571594238,4.537012100219727,0.6153098344802856
1784821986421137000,0.696136962890625,8.368034362792969,4.484339714050293,0.5602431893348694
1784821986431137000,0.706136962890625,8.554781913757324,4.481945514678955,0.569819986820221
1784821986441137000,0.716136962890625,8.68167495727539,4.486733913421631,0.6033388376235962
1784821986451137000,0.726136962890625,8.779836654663086,4.529829502105713,0.629675030708313
1784821986461137000,0.736136962890625,8.801384925842285,4.572925090789795,0.48602294921875
1784821986471137000,0.746136962890625,8.827720642089844,4.580107688903809,0.3471592366695404
1784821986481137200,0.75613720703125,8.787019729614258,4.469974517822266,0.23942017555236816
1784821986491137000,0.766136962890625,8.77504825592041,4.383783340454102,0.26336219906806946
1784821986501137200,0.77613720703125,8.777442932128906,4.28322696685791,0.3926490843296051
1784821986511137800,0.7861376953125,8.798990249633789,4.165910720825195,0.4692635238170624
1784821986521138000,0.796137939453125,8.868422508239746,4.0749311447143555,0.44771572947502136
1784821986531138000,0.806137939453125,8.861239433288574,3.9911341667175293,0.35913026332855225
1784821986541138000,0.816137939453125,8.846874237060547,3.93367338180542,0.07661445438861847
1784821986551138000,0.826137939453125,8.901941299438477,3.9240965843200684,-0.1173158809542656
1784821986561138000,0.836137939453125,8.966584205627441,3.8977603912353516,-0.181959331035614
1784821986571138000,0.846137939453125,9.115025520324707,3.8810009956359863,-0.14844051003456116
1784821986581138000,0.856137939453125,9.280224800109863,3.8786067962646484,-0.09816227108240128
1784821986591138000,0.866137939453125,9.510068893432617,3.8570590019226074,-0.05506663769483566
1784821986601138000,0.876137939453125,9.615413665771484,3.8546648025512695,0.016759412363171577
1784821986611137000,0.886136962890625,9.670479774475098,3.8498764038085938,0.10295066982507706
1784821986621137200,0.89613720703125,9.696816444396973,3.801992416381836,0.08858546614646912
1784821986631137000,0.906136962890625,9.675268173217773,3.7852327823638916,0.043095629662275314
1784821986641137200,0.91613720703125,9.644144058227539,3.7469255924224854,0.011971008032560349
1784821986651137000,0.926136962890625,9.646537780761719,3.6966474056243896,-0.004788403399288654
1784821986661137200,0.93613720703125,9.545981407165527,3.620033025741577,-0.028730420395731926
1784821986671137000,0.946136962890625,9.450213432312012,3.600879430770874,-0.12689268589019775
1784821986681137200,0.95613720703125,9.311349868774414,3.6320040225982666,-0.2801215946674347
1784821986691137000,0.966136962890625,9.177274703979492,3.6511576175689697,-0.3471592366695404
1784821986701137200,0.97613720703125,9.016862869262695,3.6774938106536865,-0.23702596127986908
1784821986711138000,0.986137939453125,8.935460090637207,3.6727054119110107,-0.11013327538967133
1784821986721138000,0.996137939453125,8.892364501953125,3.7038300037384033,-0.043095629662275314
1784821986731138000,1.006137939453125,8.820538520812988,3.804386615753174,0.06464344263076782
1784821986741138000,1.016137939453125,8.815750122070312,3.8498764038085938,0.10055647045373917
1784821986751137800,1.0261376953125,8.877999305725098,3.912125587463379,0.08858546614646912
1784821986761137700,1.0361376953125,8.92109489440918,3.971980571746826,0.1364694982767105
1784821986771137800,1.0461376953125,8.971372604370117,4.017470359802246,0.24181437492370605
1784821986781137700,1.0561376953125,9.026439666748047,4.031835556030273,0.3064578175544739
1784821986791137800,1.0661376953125,8.971372604370117,4.015076160430908,0.37828385829925537
1784821986801137700,1.0761376953125,8.877999305725098,3.9911341667175293,0.3519476354122162
1784821986811137000,1.086136962890625,8.806173324584961,3.955221176147461,0.2777273952960968
1784821986821137000,1.096136962890625,8.70801067352295,3.9193081855773926,0.19393034279346466
1784821986831137000,1.106136962890625,8.696040153503418,3.8738183975219727,0.15083470940589905
1784821986841137000,1.116136962890625,8.74152946472168,3.864241600036621,0.11971008777618408
1784821986851137000,1.126136962890625,8.777442932128906,3.845088005065918,0.08619125932455063
1784821986861137000,1.136136962890625,8.77504825592041,3.8762125968933105,0.05746084079146385
1784821986871137000,1.146136962890625,8.779836654663086,3.866635799407959,0.004788403399288654
1784821986881137000,1.156136962890625,8.791808128356934,3.8738183975219727,-0.014365210197865963
1784821986891137000,1.166136962890625,8.810961723327637,3.866635799407959,0.07900865375995636
1784821986901137000,1.176136962890625,8.92109489440918,3.8522706031799316,0.18914192914962769
1784821986911137800,1.1861376953125,9.069535255432129,3.778050184249878,0.2825157940387726
1784821986921137700,1.1961376953125,9.244312286376953,3.799597978591919,0.3064578175544739
1784821986931137800,1.2061376953125,9.299378395080566,3.797203779220581,0.304063618183136
1784821986941137700,1.2161376953125,9.299378395080566,3.7708675861358643,0.22744916379451752
1784821986951137800,1.2261376953125,9.306561470031738,3.7660791873931885,0.16998831927776337
1784821986961138200,1.23613818359375,9.251494407653809,3.73016619682312,0.11013327538967133
1784821986971138300,1.24613818359375,9.196428298950195,3.713406801223755,0.07422025501728058
1784821986981138200,1.25613818359375,9.105448722839355,3.6966474056243896,0.05267243832349777
1784821986991138300,1.26613818359375,9.04559326171875,3.7014358043670654,0.028730420395731926
1784821987001138200,1.27613818359375,8.98813247680664,3.7158010005950928,0.0454898327589035
1784821987011137500,1.286137451171875,8.95461368560791,3.7181951999664307,0.12928688526153564
1784821987021137400,1.296137451171875,8.978555679321289,3.7181951999664307,0.19871874153614044
1784821987031137500,1.306137451171875,9.095871925354004,3.7038300037384033,0.21308395266532898
1784821987041137400,1.316137451171875,9.162909507751465,3.7445313930511475,0.20111294090747833
1784821987051137500,1.326137451171875,9.215581893920898,3.7828385829925537,0.17956513166427612
1784821987061137700,1.3361376953125,9.198822021484375,3.7900211811065674,0.19871874153614044
1784821987071137500,1.346137451171875,9.201216697692871,3.7612907886505127,0.21787235140800476
1784821987081137700,1.3561376953125,9.155726432800293,3.7708675861358643,0.19871874153614044
1784821987091137500,1.366137451171875,9.069535255432129,3.751713991165161,0.1843535304069519
1784821987101137700,1.3761376953125,9.033622741699219,3.751713991165161,0.17956513166427612
1784821987111138300,1.38613818359375,9.026439666748047,3.751713991165161,0.2322375625371933
1784821987121138400,1.396138427734375,9.038411140441895,3.734954595565796,0.2801215946674347
1784821987131138300,1.40613818359375,9.069535255432129,3.754108190536499,0.2968810200691223
1784821987141138400,1.416138427734375,9.126996040344238,3.7636849880218506,0.2585737705230713
1784821987151138300,1.42613818359375,9.131784439086914,3.7684733867645264,0.15322890877723694
1784821987161138400,1.436138427734375,9.086295127868652,3.7660791873931885,0.11971008777618408
1784821987171138300,1.44613818359375,9.040804862976074,3.77565598487854,0.10534487664699554
1784821987181138400,1.456138427734375,8.980949401855469,3.754108190536499,0.12449848651885986
1784821987191138300,1.46613818359375,8.930671691894531,3.756502389907837,0.15322890877723694
1784821987201138400,1.476138427734375,8.873210906982422,3.7852327823638916,0.12210428714752197
1784821987211137500,1.486137451171875,8.909123420715332,3.8115692138671875,0.047884032130241394
1784821987221137700,1.4961376953125,8.978555679321289,3.8067808151245117,0.10295066982507706
1784821987231137500,1.506137451171875,9.047987937927246,3.797203779220581,0.1388636976480484
1784821987241137700,1.5161376953125,9.050381660461426,3.7660791873931885,0.1412578970193863
1784821987251137500,1.526137451171875,9.069535255432129,3.7900211811065674,0.040701430290937424
1784821987261137200,1.53613720703125,9.050381660461426,3.773261785507202,0.05746084079146385
1784821987271137300,1.54613720703125,9.081506729125977,3.7876269817352295,0.19871874153614044
1784821987281137200,1.55613720703125,9.158121109008789,3.7828385829925537,0.23942017555236816
1784821987293498600,1.56849853515625,9.20361042022705,3.8067808151245117,0.2106897532939911
1784821987303498500,1.57849853515625,9.213187217712402,3.8283286094665527,0.16759411990642548
1784821987313499400,1.58849951171875,9.16769790649414,3.845088005065918,0.1364694982767105
1784821987323499300,1.598499267578125,9.10305404663086,3.8067808151245117,0.12928688526153564
1784821987333499400,1.60849951171875,9.021651268005371,3.801992416381836,0.1604115068912506
1784821987343499300,1.618499267578125,8.978555679321289,3.778050184249878,0.11971008777618408
1784821987353499400,1.62849951171875,8.906729698181152,3.799597978591919,0.12210428714752197
1784821987363499300,1.638499267578125,8.856451034545898,3.797203779220581,0.14844051003456116
1784821987373499400,1.64849951171875,8.870816230773926,3.8163576126098633,0.20350714027881622
1784821987383499300,1.658499267578125,8.930671691894531,3.845088005065918,0.2537853717803955
1784821987393499400,1.66849951171875,8.980949401855469,3.869029998779297,0.24660277366638184
1784821987403499300,1.678499267578125,8.995314598083496,3.9049429893493652,0.272938996553421
1784821987413498400,1.688498291015625,9.024045944213867,3.9049429893493652,0.363918662071228
1784821987423498500,1.69849853515625,9.069535255432129,3.8522706031799316,0.3208230137825012
1784821987433498400,1.708498291015625,9.086295127868652,3.8331170082092285,0.2346317619085312
1784821987443498500,1.71849853515625,9.009679794311523,3.821146011352539,0.1412578970193863
1784821987453498400,1.728498291015625,8.945036888122559,3.8139634132385254,0.07661445438861847
1784821987463498500,1.73849853515625,8.928277015686035,3.799597978591919,0.07900865375995636
1784821987473498400,1.748498291015625,8.942642211914062,3.818751811981201,0.12928688526153564
1784821987483498500,1.75849853515625,9.002497673034668,3.801992416381836,0.15083470940589905
1784821987493498400,1.768498291015625,9.083900451660156,3.8283286094665527,0.19632454216480255
1784821987503498500,1.77849853515625,9.141361236572266,3.869029998779297,0.20111294090747833
1784821987513499400,1.78849951171875,9.150938034057617,3.8786067962646484,0.2059013396501541
1784821987523499300,1.798499267578125,9.165303230285645,3.8953661918640137,0.22266076505184174
1784821987533499400,1.80849951171875,9.146149635314941,3.866635799407959,0.22266076505184174
1784821987543499500,1.81849951171875,9.086295127868652,3.845088005065918,0.20350714027881622
1784821987553499400,1.82849951171875,8.992920875549316,3.847482204437256,0.1843535304069519
1784821987563499500,1.83849951171875,8.918700218200684,3.8762125968933105,0.12449848651885986
1784821987573499400,1.84849951171875,8.86363410949707,3.845088005065918,0.09816227108240128
1784821987583499300,1.858499267578125,8.822932243347168,3.864241600036621,0.09576806426048279
1784821987593499400,1.86849951171875,8.782231330871582,3.8546648025512695,0.1173158809542656
1784821987603499300,1.878499267578125,8.851662635803223,3.8570590019226074,0.15322890877723694
1784821987613498600,1.88849853515625,8.945036888122559,3.8977603912353516,0.26575639843940735
1784821987623498500,1.89849853515625,9.024045944213867,3.864241600036621,0.38546648621559143
1784821987633498600,1.90849853515625,9.107842445373535,3.8762125968933105,0.33279404044151306
1784821987643498500,1.91849853515625,9.095871925354004,3.928884983062744,0.31603461503982544
1784821987653498600,1.92849853515625,9.050381660461426,3.9624037742614746,0.31603461503982544
1784821987663498500,1.93849853515625,8.995314598083496,3.9193081855773926,0.2801215946674347
1784821987673498600,1.94849853515625,8.937853813171387,3.9049429893493652,0.23942017555236816
1784821987683498500,1.95849853515625,8.889969825744629,3.885789394378662,0.1628057211637497
1784821987693498600,1.96849853515625,8.839692115783691,3.8810009956359863,0.14844051003456116
1784821987703498500,1.97849853515625,8.822932243347168,3.8810009956359863,0.12928688526153564
1784821987713499400,1.98849951171875,8.875604629516602,3.88818359375,0.1412578970193863
1784821987723499300,1.998499267578125,8.976161003112793,3.907337188720703,0.19632454216480255
1784821987733499400,2.00849951171875,9.105448722839355,3.9217023849487305,0.33518823981285095
1784821987743499300,2.018499267578125,9.222764015197754,3.9193081855773926,0.37828385829925537
1784821987753499400,2.02849951171875,9.277831077575684,3.9217023849487305,0.28969839215278625
1784821987763499300,2.038499267578125,9.22515869140625,3.9240965843200684,0.23942017555236816
1784821987773499400,2.04849951171875,9.081506729125977,3.8953661918640137,0.15562310814857483
1784821987783499300,2.058499267578125,8.935460090637207,3.866635799407959,0.06224924325942993
1784821987793499400,2.06849951171875,8.789413452148438,3.8355112075805664,0.035913024097681046
1784821987803499300,2.078499267578125,8.724770545959473,3.8355112075805664,0.05746084079146385
1784821987813498600,2.08849853515625,8.751106262207031,3.8594532012939453,0.12210428714752197
1784821987823498500,2.09849853515625,8.851662635803223,3.8810009956359863,0.26096799969673157
1784821987833498400,2.108498291015625,8.889969825744629,3.9193081855773926,0.26575639843940735
1784821987843498500,2.11849853515625,8.911518096923828,3.936067581176758,0.19871874153614044
1784821987853498400,2.128498291015625,8.911518096923828,3.950432777404785,0.1628057211637497
1784821987863498500,2.13849853515625,8.918700218200684,3.9600095748901367,0.16759411990642548
1784821987873498400,2.148498291015625,8.95700740814209,3.9432501792907715,0.2082955539226532
1784821987883498500,2.15849853515625,9.033622741699219,3.9169139862060547,0.31124621629714966
1784821987893498400,2.168498291015625,9.081506729125977,3.892971992492676,0.3232172429561615
1784821987903498500,2.17849853515625,9.093477249145508,3.950432777404785,0.31124621629714966
1784821987913499400,2.18849951171875,9.110237121582031,3.9193081855773926,0.2585737705230713
1784821987923499300,2.198499267578125,9.06714153289795,3.885789394378662,0.19871874153614044
1784821987933499400,2.20849951171875,8.983344078063965,3.8331170082092285,0.14365209639072418
1784821987943499300,2.218499267578125,8.901941299438477,3.8283286094665527,0.08140286058187485
1784821987953499400,2.22849951171875,8.885181427001953,3.825934410095215,0.1149216815829277
1784821987963499300,2.238499267578125,8.89954662322998,3.8283286094665527,0.15801730751991272
1784821987973499400,2.24849951171875,8.901941299438477,3.8546648025512695,0.21787235140800476
1784821987983499300,2.258499267578125,8.95700740814209,3.8738183975219727,0.17956513166427612
1784821987993499400,2.26849951171875,8.966584205627441,3.883395195007324,0.17238251864910126
1784821988003499300,2.278499267578125,8.985737800598145,3.88818359375,0.21787235140800476
1784821988013498400,2.288498291015625,9.002497673034668,3.8738183975219727,0.2753331959247589
1784821988023498500,2.29849853515625,9.105448722839355,3.8714241981506348,0.3016694188117981
1784821988033498600,2.30849853515625,9.141361236572266,3.8570590019226074,0.31842881441116333
1784821988043498500,2.31849853515625,9.117419242858887,3.883395195007324,0.26575639843940735
1784821988053498600,2.32849853515625,9.083900451660156,3.912125587463379,0.18914192914962769
1784821988063498500,2.33849853515625,9.07911205291748,3.8714241981506348,0.1364694982767105
1784821988073498600,2.34849853515625,9.10066032409668,3.823540210723877,0.1364694982767105
1784821988083498500,2.35849853515625,9.014469146728516,3.797203779220581,0.16519992053508759
1784821988093498600,2.36849853515625,8.966584205627441,3.8067808151245117,0.17956513166427612
1784821988103498500,2.37849853515625,8.980949401855469,3.825934410095215,0.1364694982767105
1784821988113499400,2.38849951171875,9.014469146728516,3.8307228088378906,0.17477671802043915
1784821988123499300,2.398499267578125,9.004891395568848,3.8570590019226074,0.17477671802043915
1784821988133499400,2.40849951171875,8.995314598083496,3.861847400665283,0.2059013396501541
1784821988143499300,2.418499267578125,8.992920875549316,3.892971992492676,0.24899697303771973
1784821988153499400,2.42849951171875,8.964190483093262,3.864241600036621,0.2561795711517334
1784821988163499300,2.438499267578125,9.000102996826172,3.8738183975219727,0.24899697303771973
1784821988173499400,2.44849951171875,9.016862869262695,3.9001545906066895,0.2322375625371933
1784821988183499300,2.458499267578125,9.10066032409668,3.88818359375,0.2968810200691223
1784821988193499400,2.46849951171875,9.179668426513672,3.8762125968933105,0.35673606395721436
1784821988203499300,2.478499267578125,9.1940336227417,3.8810009956359863,0.29209262132644653
1784821988213498600,2.48849853515625,9.162909507751465,3.890577793121338,0.14365209639072418
1784821988223498500,2.49849853515625,9.031228065490723,3.864241600036621,0.08140286058187485
1784821988233498600,2.50849853515625,8.882787704467773,3.840299606323242,-0.05267243832349777
1784821988243498500,2.51849853515625,8.734347343444824,3.8307228088378906,-0.05746084079146385
1784821988253498600,2.52849853515625,8.662521362304688,3.821146011352539,-0.026336219161748886
1784821988263498500,2.53849853515625,8.669703483581543,3.821146011352539,0.13407529890537262
1784821988273498600,2.54849853515625,8.77265453338623,3.821146011352539,0.2513911724090576
1784821988283498500,2.55849853515625,8.904335021972656,3.8738183975219727,0.2944868206977844
1784821988293498600,2.56849853515625,9.107842445373535,3.9480385780334473,0.3208230137825012
1784821988303498500,2.57849853515625,9.210793495178223,3.93367338180542,0.3016694188117981
1784821988313499400,2.58849951171875,9.213187217712402,3.8977603912353516,0.26575639843940735
1784821988323499300,2.598499267578125,9.189245223999023,3.9001545906066895,0.19632454216480255
1784821988333499400,2.60849951171875,9.115025520324707,3.864241600036621,0.19153612852096558
1784821988343499300,2.618499267578125,9.002497673034668,3.794809579849243,0.2059013396501541
1784821988353499400,2.62849951171875,8.89954662322998,3.7900211811065674,0.2059013396501541
1784821988363499300,2.638499267578125,8.83250904083252,3.7828385829925537,0.14604631066322327
1784821988373499400,2.64849951171875,8.779836654663086,3.797203779220581,0.12449848651885986
1784821988383499300,2.658499267578125,8.7391357421875,3.794809579849243,0.10055647045373917
1784821988393499400,2.66849951171875,8.712799072265625,3.825934410095215,0.043095629662275314
1784821988403499300,2.678499267578125,8.77265453338623,3.8379054069519043,0.08379705995321274
1784821988413498400,2.688498291015625,9.009679794311523,3.8522706031799316,0.2777273952960968
1784821988423498500,2.69849853515625,9.241917610168457,3.8331170082092285,0.45489832758903503
1784821988433498400,2.708498291015625,9.462183952331543,3.864241600036621,0.4644751250743866
1784821988443498500,2.71849853515625,9.58907699584961,3.890577793121338,0.40701428055763245
1784821988453498400,2.728498291015625,9.543587684631348,3.8546648025512695,0.3232172429561615
1784821988463498500,2.73849853515625,9.421483039855957,3.799597978591919,0.2106897532939911
1784821988473498400,2.748498291015625,9.22755241394043,3.7397429943084717,0.09576806426048279
1784821988483498500,2.75849853515625,8.997709274291992,3.7277719974517822,0.031124621629714966
1784821988493498400,2.768498291015625,8.839692115783691,3.732560396194458,0.021547814831137657
1784821988503498500,2.77849853515625,8.70801067352295,3.7636849880218506,0.10055647045373917
1784821988513499400,2.78849951171875,8.676886558532715,3.778050184249878,0.19393034279346466
1784821988523499300,2.798499267578125,8.753500938415527,3.818751811981201,0.2346317619085312
1784821988533499400,2.80849951171875,8.846874237060547,3.8498764038085938,0.23702596127986908
1784821988543499300,2.818499267578125,8.942642211914062,3.88818359375,0.17477671802043915
1784821988553499400,2.82849951171875,9.002497673034668,3.9169139862060547,0.19632454216480255
1784821988563499300,2.838499267578125,9.059958457946777,3.885789394378662,0.2777273952960968
1784821988573499400,2.84849951171875,9.110237121582031,3.885789394378662,0.31364041566848755
1784821988583499300,2.858499267578125,9.095871925354004,3.8714241981506348,0.2753331959247589
1784821988593499400,2.86849951171875,9.021651268005371,3.84269380569458,0.26096799969673157
1784821988603499300,2.878499267578125,9.036016464233398,3.818751811981201,0.2106897532939911
1784821988613498400,2.888498291015625,9.074323654174805,3.8379054069519043,0.24420857429504395
1784821988623498500,2.89849853515625,9.13417911529541,3.7924153804779053,0.2753331959247589
1784821988633498400,2.908498291015625,9.179668426513672,3.8067808151245117,0.272938996553421
1784821988643498500,2.91849853515625,9.201216697692871,3.8283286094665527,0.1843535304069519
1784821988653498400,2.928498291015625,9.148544311523438,3.845088005065918,0.1412578970193863
1784821988663498500,2.93849853515625,9.040804862976074,3.8091750144958496,0.07422025501728058
1784821988673498400,2.948498291015625,8.935460090637207,3.8139634132385254,0.021547814831137657
1784821988683498500,2.95849853515625,8.858845710754395,3.8115692138671875,0.0694318488240242
1784821988693498400,2.968498291015625,8.798990249633789,3.845088005065918,0.11971008777618408
1784821988703498500,2.97849853515625,8.798990249633789,3.8379054069519043,0.17956513166427612
1784821988713499400,2.98849951171875,8.842085838317871,3.866635799407959,0.2106897532939911
1784821988723499300,2.998499267578125,8.856451034545898,3.88818359375,0.19632454216480255
1784821988733499400,3.00849951171875,8.940248489379883,3.864241600036621,0.2082955539226532
1784821988753499400,3.02849951171875,9.117419242858887,3.892971992492676,0.31124621629714966
1784821988763499300,3.038499267578125,9.172486305236816,3.883395195007324,0.2537853717803955
1784821988773499400,3.04849951171875,9.143755912780762,3.8762125968933105,0.2513911724090576
1784821988783499500,3.05849951171875,9.105448722839355,3.9025487899780273,0.24181437492370605
1784821988793499400,3.06849951171875,9.04559326171875,3.845088005065918,0.2298433631658554
1784821988803499500,3.07849951171875,8.980949401855469,3.804386615753174,0.22505496442317963
1784821988813498600,3.08849853515625,8.92109489440918,3.8307228088378906,0.22505496442317963
1784821988823498500,3.09849853515625,8.882787704467773,3.7852327823638916,0.20111294090747833
1784821988833498400,3.108498291015625,8.933065414428711,3.8067808151245117,0.14844051003456116
1784821988843498500,3.11849853515625,8.995314598083496,3.825934410095215,0.17238251864910126
1784821988853498400,3.128498291015625,9.04559326171875,3.847482204437256,0.2059013396501541
1784821988863498500,3.13849853515625,9.059958457946777,3.890577793121338,0.16998831927776337
1784821988873498400,3.148498291015625,9.110237121582031,3.892971992492676,0.18914192914962769
1784821988883498500,3.15849853515625,9.148544311523438,3.88818359375,0.26575639843940735
1784821988893498400,3.168498291015625,9.117419242858887,3.8762125968933105,0.26096799969673157
1784821988903498500,3.17849853515625,8.971372604370117,3.8762125968933105,0.21787235140800476
1784821988913499400,3.18849951171875,8.882787704467773,3.8810009956359863,0.1604115068912506
1784821988923499300,3.198499267578125,8.844480514526367,3.847482204437256,0.1412578970193863
1784821988933499400,3.20849951171875,8.856451034545898,3.8091750144958496,0.1628057211637497
1784821988943499300,3.218499267578125,8.861239433288574,3.8091750144958496,0.1843535304069519
1784821988953499400,3.22849951171875,8.945036888122559,3.823540210723877,0.21547815203666687
1784821988963499300,3.238499267578125,9.07911205291748,3.8379054069519043,0.2585737705230713
1784821988973499400,3.24849951171875,9.119813919067383,3.840299606323242,0.2561795711517334
1784821988983499300,3.258499267578125,9.158121109008789,3.890577793121338,0.17717093229293823
1784821988993499400,3.26849951171875,9.115025520324707,3.912125587463379,0.14365209639072418
1784821989003499300,3.278499267578125,9.059958457946777,3.8977603912353516,0.16759411990642548
1784821989013498400,3.288498291015625,9.002497673034668,3.88818359375,0.2346317619085312
1784821989023498500,3.29849853515625,8.909123420715332,3.890577793121338,0.24181437492370605
1784821989033498400,3.308498291015625,8.89954662322998,3.866635799407959,0.23942017555236816
1784821989043498500,3.31849853515625,8.89954662322998,3.883395195007324,0.21547815203666687
1784821989053498400,3.328498291015625,8.89954662322998,3.8762125968933105,0.1412578970193863
1784821989063498500,3.33849853515625,8.916306495666504,3.88818359375,0.09816227108240128
1784821989073498400,3.348498291015625,8.933065414428711,3.864241600036621,0.090979665517807
1784821989083498500,3.35849853515625,8.935460090637207,3.8163576126098633,0.1412578970193863
1784821989093498400,3.368498291015625,8.976161003112793,3.840299606323242,0.15322890877723694
1784821989103498500,3.37849853515625,9.050381660461426,3.8738183975219727,0.2585737705230713
1784821989113499400,3.38849951171875,9.107842445373535,3.883395195007324,0.3663128614425659
1784821989123499300,3.398499267578125,9.150938034057617,3.8762125968933105,0.3711012601852417
1784821989133499400,3.40849951171875,9.153332710266113,3.883395195007324,0.2513911724090576
1784821989143499300,3.418499267578125,9.143755912780762,3.8714241981506348,0.181959331035614
1784821989153499400,3.42849951171875,9.07911205291748,3.825934410095215,0.17717093229293823
1784821989163499300,3.438499267578125,9.033622741699219,3.8163576126098633,0.12689268589019775
1784821989173499400,3.44849951171875,8.99052619934082,3.847482204437256,0.14844051003456116
1784821989183499300,3.458499267578125,8.99052619934082,3.8355112075805664,0.17717093229293823
1784821989193499400,3.46849951171875,9.004891395568848,3.8379054069519043,0.20111294090747833
1784821989203499300,3.478499267578125,8.976161003112793,3.8594532012939453,0.24420857429504395
1784821989213498400,3.488498291015625,8.959402084350586,3.9264907836914062,0.20350714027881622
1784821989223498500,3.49849853515625,8.904335021972656,3.93367338180542,0.21308395266532898
1784821989233498400,3.508498291015625,8.86363410949707,3.9264907836914062,0.2753331959247589
1784821989243498500,3.51849853515625,8.858845710754395,3.8714241981506348,0.33279404044151306
1784821989253498400,3.528498291015625,8.854057312011719,3.869029998779297,0.26575639843940735
1784821989263498500,3.53849853515625,8.882787704467773,3.9049429893493652,0.10055647045373917
1784821989273498600,3.54849853515625,8.995314598083496,3.928884983062744,0.014365210197865963
1784821989283498500,3.55849853515625,9.155726432800293,3.9432501792907715,0.0933738648891449
1784821989293498600,3.56849853515625,9.268254280090332,3.883395195007324,0.20350714027881622
1784821989303498500,3.57849853515625,9.280224800109863,3.8570590019226074,0.29209262132644653
1784821989313499400,3.58849951171875,9.287407875061035,3.9240965843200684,0.24899697303771973
1784821989323499300,3.598499267578125,9.263465881347656,3.907337188720703,0.1867477297782898
1784821989333499400,3.60849951171875,9.19163990020752,3.8283286094665527,0.1867477297782898
1784821989343499300,3.618499267578125,9.177274703979492,3.7421371936798096,0.13407529890537262
1784821989353499400,3.62849951171875,9.158121109008789,3.6942532062530518,0.035913024097681046
1784821989363499300,3.638499267578125,9.198822021484375,3.6942532062530518,-0.08379705995321274
1784821989373499400,3.64849951171875,9.253889083862305,3.7277719974517822,-0.1604115068912506
1784821989383499300,3.658499267578125,9.359233856201172,3.7277719974517822,-0.13168109953403473
1784821989393499400,3.66849951171875,9.431059837341309,3.7612907886505127,0.06224924325942993
1784821989403499300,3.678499267578125,9.538799285888672,3.797203779220581,0.26575639843940735
1784821989413498400,3.688498291015625,9.502885818481445,3.845088005065918,0.23942017555236816
1784821989423498500,3.69849853515625,9.323320388793945,3.9695863723754883,0.17956513166427612
1784821989433498400,3.708498291015625,9.13417911529541,4.113238334655762,0.09576806426048279
1784821989443498500,3.71849853515625,8.8971529006958,4.175487995147705,0.1173158809542656
1784821989453498400,3.728498291015625,9.256282806396484,4.247313976287842,-0.05267243832349777
1784821989463498500,3.73849853515625,8.861239433288574,4.438849925994873,0.5171475410461426
1784821989473498400,3.748498291015625,8.43507194519043,4.55616569519043,0.9433154463768005
1784821989483498500,3.75849853515625,8.10706615447998,4.4723687171936035,0.9768342971801758
1784821989493498400,3.768498291015625,7.767089366912842,4.501099109649658,0.933738648891449
1784821989503498500,3.77849853515625,7.580341815948486,4.55616569519043,0.7805097699165344
1784821989513499400,3.78849951171875,7.393594264984131,4.6040496826171875,0.6799532771110535
1784821989523499300,3.798499267578125,7.395988464355469,4.563348293304443,0.5722141861915588
1784821989533499400,3.80849951171875,7.551611423492432,4.532223701477051,0.507570743560791
1784821989543499300,3.818499267578125,7.867646217346191,4.513070106506348,0.5147533416748047
1784821989553499400,3.82849951171875,8.267477989196777,4.388571739196777,0.5123591423034668
1784821989563499300,3.838499267578125,8.5595703125,4.321534156799316,0.42856210470199585
1784821989573499400,3.84849951171875,8.8971529006958,4.338293552398682,0.19393034279346466
1784821989583499300,3.858499267578125,9.107842445373535,4.2329487800598145,0.12689268589019775
1784821989593499400,3.86849951171875,9.237129211425781,4.072536945343018,0.23702596127986908
1784821989603499300,3.878499267578125,9.404723167419434,4.094084739685059,0.29209262132644653
1784821989613498400,3.888498291015625,9.457395553588867,4.194641590118408,0.3064578175544739
1784821989623498500,3.89849853515625,9.364022254943848,4.216189384460449,0.35434186458587646
1784821989633498400,3.908498291015625,9.129390716552734,4.235342979431152,0.33039984107017517
1784821989643498500,3.91849853515625,8.889969825744629,4.199429988861084,0.12210428714752197
1784821989653498400,3.928498291015625,8.765471458435059,4.218583583831787,-0.08140286058187485
1784821989663498500,3.93849853515625,8.710405349731445,4.19224739074707,-0.14365209639072418
1784821989673498400,3.948498291015625,8.758289337158203,4.072536945343018,-0.023942016065120697
1784821989683498500,3.95849853515625,8.86363410949707,4.067748546600342,0.035913024097681046
1784821989693498400,3.968498291015625,9.047987937927246,4.0294413566589355,0.05985504388809204
1784821989703498500,3.97849853515625,9.268254280090332,3.9671921730041504,-0.0071826050989329815
1784821989713499400,3.98849951171875,9.658509254455566,3.912125587463379,-0.17477671802043915
1784821989723499300,3.998499267578125,9.948206901550293,3.8139634132385254,-0.16998831927776337
1784821989733499400,4.00849951171875,9.96257209777832,3.6846764087677,-0.08858546614646912
1784821989743499300,4.018499267578125,9.854833602905273,3.643975019454956,-0.016759412363171577
1784821989753499400,4.02849951171875,9.725546836853027,3.691859006881714,-0.023942016065120697
1784821989763499300,4.038499267578125,9.584288597106934,3.7014358043670654,0.05267243832349777
1784821989773499100,4.0484990234375,9.433453559875488,3.7397429943084717,0.1628057211637497
1784821989783499300,4.058499267578125,9.47415542602539,3.7493197917938232,0.3016694188117981
1784821989793499100,4.0684990234375,9.629778861999512,3.6320040225982666,0.26575639843940735
1784821989803499300,4.078499267578125,9.80455493927002,3.4596214294433594,0.15562310814857483
1784821989823498200,4.098498291015625,10.036792755126953,3.205836057662964,-0.1867477297782898
1784821989833498400,4.108498291015625,10.041581153869629,3.141192674636841,-0.3926490843296051
1784821989843498200,4.118498291015625,10.008062362670898,3.0885202884674072,-0.5123591423034668
1784821989853498400,4.128498291015625,10.053552627563477,3.117250680923462,-0.569819986820221
1784821989863498200,4.138498291015625,10.360010147094727,3.098097085952759,-0.5315127968788147
1784821989873498400,4.148498291015625,10.656890869140625,3.00711727142334,-0.3064578175544739
1784821989883498200,4.158498291015625,10.721534729003906,2.8993782997131348,-0.0454898327589035
1784821989893498400,4.168498291015625,10.606613159179688,2.851494312286377,0.047884032130241394
1784821989903498200,4.178498291015625,10.419864654541016,2.9017724990844727,0.05267243832349777
1784821989913499100,4.1884990234375,10.307337760925293,2.7676970958709717,0.2561795711517334
1784821989923499000,4.1984990234375,10.443806648254395,2.6431987285614014,0.33279404044151306
1784821989933499100,4.2084990234375,10.656890869140625,2.6240451335906982,0.40222588181495667
1784821989943499000,4.2184990234375,10.778995513916016,2.6599581241607666,0.3974374830722809
1784821989953499100,4.2284990234375,10.738293647766113,2.695871114730835,0.3256114423274994
1784821989963499000,4.2384990234375,10.527604103088379,2.7222073078155518,0.47405192255973816
1784821989973499100,4.2484990234375,9.945813179016113,2.7485435009002686,0.8212111592292786
1784821989983499000,4.2584990234375,9.416694641113281,2.7006595134735107,1.0773907899856567
1784821989993499100,4.2684990234375,9.038411140441895,2.628833532333374,1.0893617868423462
1784821990003499000,4.2784990234375,8.904335021972656,2.5953147411346436,0.7565677165985107
1784821990013498400,4.288498291015625,9.153332710266113,2.492363929748535,0.33997663855552673
1784821990023498200,4.298498291015625,9.651326179504395,2.3104045391082764,0.002394201699644327
1784821990033498400,4.308498291015625,10.156502723693848,2.1380221843719482,-0.2298433631658554
1784821990043498200,4.318498291015625,10.637737274169922,2.056619167327881,-0.5339069962501526
1784821990053498400,4.328498291015625,10.996868133544922,2.078166961669922,-0.7015010714530945
1784821990063498200,4.338498291015625,10.939406394958496,2.10210919380188,-0.5578489899635315
1784821990073498400,4.348498291015625,10.656890869140625,2.056619167327881,-0.23942017555236816
1784821990083498500,4.35849853515625,10.300154685974121,1.9393033981323242,0.15801730751991272
1784821990093498400,4.368498291015625,10.084676742553711,1.8746598958969116,0.6584054827690125
1784821990103498500,4.37849853515625,10.173262596130371,1.8411411046981812,1.070208191871643
1784821990113499400,4.38849951171875,10.352827072143555,1.8507179021835327,1.2210428714752197
1784821990123499300,4.398499267578125,10.640131950378418,1.7094600200653076,0.9576807022094727
1784821990133499400,4.40849951171875,10.817302703857422,1.6304513216018677,0.33518823981285095
1784821990143499300,4.418499267578125,10.6616792678833,1.6903064250946045,-0.22266076505184174
1784821990153499400,4.42849951171875,10.496479988098145,1.867477297782898,-0.524330198764801
1784821990163499300,4.438499267578125,10.10622501373291,1.8315643072128296,-0.4836287498474121
1784821990173499400,4.44849951171875,9.715970039367676,1.7549498081207275,-0.24899697303771973
1784821990183499300,4.458499267578125,9.584288597106934,1.7525556087493896,-0.11252748221158981
1784821990193499400,4.46849951171875,9.663297653198242,1.7764976024627686,0.15322890877723694
1784821990203499300,4.478499267578125,9.931447982788086,1.9057846069335938,0.4189853072166443
1784821990213498400,4.488498291015625,10.237905502319336,1.8986018896102905,0.4836287498474121
1784821990223498500,4.49849853515625,10.398317337036133,1.886630892753601,0.3711012601852417
1784821990233498400,4.508498291015625,10.491691589355469,1.889025092124939,0.22744916379451752
1784821990243498500,4.51849853515625,10.371980667114258,1.8986018896102905,-0.011971008032560349
1784821990253498400,4.528498291015625,10.1660795211792,1.86508309841156,-0.20350714027881622
1784821990263498500,4.53849853515625,9.885957717895508,1.802833914756775,-0.2513911724090576
1784821990273498400,4.548498291015625,9.739912033081055,1.721431016921997,-0.35673606395721436
1784821990283498500,4.55849853515625,9.756670951843262,1.6711528301239014,-0.5506663918495178
1784821990293498400,4.568498291015625,9.888352394104004,1.6519991159439087,-0.6631938815116882
1784821990303498500,4.57849853515625,10.07509994506836,1.6974890232086182,-0.6153098344802856
1784821990313499400,4.58849951171875,10.259453773498535,1.702277421951294,-0.4908113479614258
1784821990323499300,4.598499267578125,10.352827072143555,1.647210717201233,-0.31603461503982544
1784821990333499400,4.60849951171875,10.276212692260742,1.5634137392044067,-0.23942017555236816
1784821990343499300,4.618499267578125,10.295366287231445,1.4437036514282227,-0.14604631066322327
1784821990353499400,4.62849951171875,10.35522174835205,1.2832920551300049,-0.19153612852096558
1784821990363499300,4.638499267578125,10.393528938293457,1.237802267074585,-0.507570743560791
1784821990373499400,4.64849951171875,10.515633583068848,1.2689268589019775,-0.751779317855835
1784821990383499300,4.658499267578125,10.597036361694336,1.1827356815338135,-0.933738648891449
1784821990393499400,4.66849951171875,10.589853286743164,1.1420341730117798,-0.9097966551780701
1784821990403499300,4.678499267578125,10.486903190612793,1.173158884048462,-0.7015010714530945
1784821990413498400,4.688498291015625,10.281001091003418,1.1492167711257935,-0.5506663918495178
1784821990423498500,4.69849853515625,10.079888343811035,1.1061211824417114,-0.5482721924781799
1784821990433498400,4.708498291015625,9.818920135498047,1.137245774269104,-0.5674257874488831
1784821990443498500,4.71849853515625,9.550769805908203,1.137245774269104,-0.5315127968788147
1784821990453498400,4.728498291015625,9.31613826751709,1.1827356815338135,-0.38067805767059326
1784821990463498500,4.73849853515625,9.31853199005127,1.2090718746185303,-0.2322375625371933
1784821990473498400,4.748498291015625,9.31613826751709,1.256955862045288,-0.3902548849582672
1784821990483498500,4.75849853515625,9.22515869140625,1.290474772453308,-0.6560112833976746
1784821990493498400,4.768498291015625,9.050381660461426,1.3646949529647827,-0.8427590131759644
1784821990503498500,4.77849853515625,8.913911819458008,1.501164436340332,-0.8259995579719543
1784821990513499100,4.7884990234375,8.810961723327637,1.599326729774475,-0.5171475410461426
1784821990523499300,4.798499267578125,8.760683059692383,1.6065093278884888,0.004788403399288654
1784821990533466000,4.808466064453125,8.724770545959473,1.6160861253738403,0.38067805767059326
1784821990543432700,4.8184326171875,8.789413452148438,1.6855180263519287,0.7254431247711182
1784821990553399300,4.8283994140625,8.861239433288574,1.7094600200653076,0.8307880163192749
1784821990563366000,4.838365966796875,9.047987937927246,1.7381904125213623,0.6991068720817566
1784821990573332700,4.848332763671875,9.196428298950195,1.800439715385437,0.3495534360408783
1784821990583299300,4.85829931640625,9.356839179992676,1.9321208000183105,-0.047884032130241394
1784821990593266000,4.868265869140625,9.629778861999512,1.98958158493042,-0.12449848651885986
1784821990603232800,4.878232666015625,9.857227325439453,1.9512743949890137,0.10295066982507706
1784821990613198300,4.8881982421875,10.022427558898926,1.920149803161621,0.5051765441894531
1784821990623165200,4.898165283203125,10.067917823791504,1.9536685943603516,0.9050082564353943
1784821990633131800,4.9081318359375,9.972148895263672,2.056619167327881,1.2186486721038818
1784821990643098400,4.918098388671875,9.775824546813965,2.1954829692840576,1.50355863571167
1784821990653065200,4.928065185546875,9.569923400878906,2.2218191623687744,1.5275006294250488
1784821990663031800,4.93803173828125,9.208398818969727,2.2673089504241943,1.2665326595306396
1784821990672998400,4.947998291015625,8.901941299438477,2.3774423599243164,0.950498104095459
1784821990682965000,4.957965087890625,8.698433876037598,2.497152328491211,0.5913678407669067
1784821990692931800,4.967931884765625,8.509291648864746,2.6168625354766846,0.40940847992897034
1784821990702898400,4.9778984375,8.336909294128418,2.7964274883270264,0.5051765441894531
1784821990712866000,4.987865966796875,8.181286811828613,2.9281086921691895,0.727837324142456
1784821990722832600,4.99783251953125,8.025663375854492,2.9041666984558105,0.8451532125473022
1784821990732799200,5.00779931640625,7.704840183258057,2.889801502227783,0.8690952062606812
1784821990742766000,5.01776611328125,7.494150638580322,2.892195701599121,0.751779317855835
1784821990752732700,5.027732666015625,7.506121635437012,2.87064790725708,0.6943184733390808
1784821990762699300,5.03769921875,7.719205379486084,2.8802247047424316,0.768538773059845
1784821990772665900,5.047665771484375,7.989750385284424,2.87064790725708,0.9193734526634216
1784821990782632700,5.0576328125,8.432677268981934,2.9328970909118652,0.9768342971801758
1784821990792599300,5.067599365234375,8.787019729614258,2.911349296569824,0.9145850539207458
1784821990802566000,5.07756591796875,8.945036888122559,2.8347349166870117,0.6009446382522583
1784821990812531700,5.08753173828125,8.798990249633789,2.8634653091430664,0.07900865375995636
1784821990822498300,5.097498291015625,8.633790969848633,2.935291290283203,-0.2585737705230713
1784821990832498400,5.10749853515625,8.423100471496582,3.0142998695373535,-0.3926490843296051
1784821990842498300,5.117498291015625,8.159738540649414,3.0190882682800293,-0.363918662071228
1784821990852498400,5.12749853515625,7.963414192199707,3.093308687210083,-0.22266076505184174
1784821990862498300,5.137498291015625,7.731176376342773,3.181894063949585,-0.011971008032560349
1784821990872498400,5.14749853515625,7.546823024749756,3.222595453262329,0.2346317619085312
1784821990882498300,5.157498291015625,7.585130214691162,3.335123062133789,0.4118026793003082
1784821990892498400,5.16749853515625,8.092700958251953,3.3303346633911133,0.5171475410461426
1784821990902498300,5.177498291015625,8.542811393737793,3.201047658920288,0.4381389021873474
1784821990912499200,5.187499267578125,8.834903717041016,3.157952070236206,0.19871874153614044
1784821990922499300,5.197499267578125,8.870816230773926,3.270479440689087,-0.16519992053508759
1784821990932499200,5.207499267578125,8.801384925842285,3.383007049560547,-0.3280056416988373
1784821990942499300,5.217499267578125,8.787019729614258,3.442862033843994,-0.36152446269989014
1784821990952499200,5.227499267578125,8.751106262207031,3.44765043258667,-0.31124621629714966
1784821990962499300,5.237499267578125,8.803778648376465,3.450044631958008,-0.3447650372982025
1784821990972498400,5.24749853515625,8.822932243347168,3.5027170181274414,-0.38546648621559143
1784821990982498300,5.257498291015625,8.794201850891113,3.5625722408294678,-0.35673606395721436
1784821990992498400,5.26749853515625,8.64815616607666,3.6176388263702393,-0.2059013396501541
1784821991002498300,5.277498291015625,8.265083312988281,3.6774938106536865,0.17717093229293823
1784821991012497400,5.287497314453125,8.066365242004395,3.7469255924224854,0.3495534360408783
1784821991022497500,5.29749755859375,8.020874977111816,3.7900211811065674,0.3687070608139038
1784821991032497400,5.307497314453125,8.205228805541992,3.8714241981506348,0.26336219906806946
1784821991042497500,5.31749755859375,8.430283546447754,3.9384617805480957,0.08379705995321274
1784821991052497400,5.327497314453125,8.482955932617188,3.9695863723754883,0.08619125932455063
1784821991062497500,5.33749755859375,8.50210952758789,3.955221176147461,0.14604631066322327
1784821991072497400,5.347497314453125,8.391976356506348,3.907337188720703,0.19153612852096558
1784821991082497500,5.35749755859375,8.13100814819336,3.885789394378662,0.22266076505184174
1784821991092497400,5.367497314453125,8.16213321685791,3.9049429893493652,0.36152446269989014
1784821991102497500,5.37749755859375,8.396764755249023,3.9049429893493652,0.5147533416748047
1784821991112498400,5.38749853515625,8.621819496154785,3.754108190536499,0.5434837937355042
1784821991122498300,5.397498291015625,8.751106262207031,3.663128614425659,0.43095630407333374
1784821991132498400,5.40749853515625,8.83250904083252,3.7229835987091064,0.1364694982767105
1784821991142498300,5.417498291015625,8.801384925842285,3.73016619682312,0.08379705995321274
1784821991152498400,5.42749853515625,8.933065414428711,3.6942532062530518,0.26096799969673157
1784821991162498300,5.437498291015625,8.983344078063965,3.6798880100250244,0.6248866319656372
1784821991172498400,5.44749853515625,8.827720642089844,3.670311212539673,0.8643068075180054
1784821991182498300,5.457498291015625,8.770259857177734,3.667917013168335,0.7876923680305481
1784821991192498400,5.46749853515625,8.652944564819336,3.7277719974517822,0.45250412821769714
1784821991202498300,5.477498291015625,8.660126686096191,3.845088005065918,0.272938996553421
1784821991212497400,5.487497314453125,8.736741065979004,3.8714241981506348,0.2968810200691223
1784821991222497500,5.49749755859375,8.746317863464355,3.7660791873931885,0.42856210470199585
1784821991232497400,5.507497314453125,8.70561695098877,3.5936968326568604,0.6416460275650024
1784821991242497500,5.51749755859375,8.674491882324219,3.533841609954834,0.7134721279144287
1784821991252497400,5.527497314453125,8.710405349731445,3.5482068061828613,0.751779317855835
1784821991262497500,5.53749755859375,9.004891395568848,3.579331636428833,0.7565677165985107
1784821991272498400,5.54749853515625,9.320926666259766,3.4572272300720215,0.7469909191131592
1784821991282498300,5.557498291015625,9.567529678344727,3.2824504375457764,0.7038952708244324
1784821991292498400,5.56749853515625,9.775824546813965,3.157952070236206,0.5937620401382446
1784821991302498300,5.577498291015625,9.847650527954102,3.1866824626922607,0.47165772318840027
1784821991312499200,5.587499267578125,9.759065628051758,3.1962592601776123,0.3519476354122162
1784821991322499000,5.5974990234375,9.613018989562988,3.1890766620635986,0.3734954595565796
1784821991332499200,5.607499267578125,9.395146369934082,3.2345664501190186,0.5123591423034668
1784821991342499000,5.6174990234375,9.253889083862305,3.2178070545196533,0.5722141861915588
1784821991352499200,5.627499267578125,9.083900451660156,3.1651346683502197,0.5961562395095825
1784821991362499000,5.6374990234375,8.933065414428711,3.184288263320923,0.5793967843055725
1784821991372499200,5.647499267578125,8.880393028259277,3.3279404640197754,0.5626373887062073
1784821991382499000,5.6574990234375,8.789413452148438,3.3423056602478027,0.706289529800415
1784821991392499200,5.667499267578125,8.729558944702148,3.227383852005005,0.8307880163192749
1784821991402499000,5.6774990234375,8.961795806884766,3.0861260890960693,0.8403648138046265
1784821991412498400,5.68749853515625,9.320926666259766,3.090914487838745,0.8427590131759644
1784821991422498300,5.697498291015625,9.65611457824707,3.069366693496704,0.6655880808830261
1784821991432498400,5.70749853515625,9.919476509094238,3.1028854846954346,0.47165772318840027
1784821991442498300,5.717498291015625,9.897929191589355,3.1292216777801514,0.3878606855869293
1784821991452498400,5.72749853515625,9.670479774475098,3.1220390796661377,0.4357447028160095
1784821991462498300,5.737498291015625,9.450213432312012,3.134010076522827,0.3926490843296051
1784821991472498400,5.74749853515625,9.414299964904785,3.1675288677215576,0.27054479718208313
1784821991482498300,5.757498291015625,9.335291862487793,3.141192674636841,0.28730419278144836
1784821991492498400,5.76749853515625,9.387964248657227,3.1747114658355713,0.3280056416988373
1784821991502498300,5.777498291015625,9.534010887145996,3.315969467163086,0.3758896589279175
1784821991512499200,5.787499267578125,9.579500198364258,3.380612850189209,0.35673606395721436
1784821991522499300,5.797499267578125,9.5316162109375,3.3423056602478027,0.33039984107017517
1784821991532499200,5.807499267578125,9.665691375732422,3.2968156337738037,0.3256114423274994
1784821991542499300,5.817499267578125,9.720758438110352,3.205836057662964,0.26575639843940735
1784821991552499200,5.827499267578125,9.658509254455566,3.179499864578247,0.1173158809542656
1784821991562499300,5.837499267578125,9.696816444396973,3.1866824626922607,-0.0933738648891449
1784821991572500200,5.847500244140625,9.706393241882324,3.177105665206909,-0.2849099934101105
1784821991582500000,5.8575,9.711181640625,3.1435868740081787,-0.38307225704193115
1784821991592500200,5.867500244140625,9.684844970703125,3.0334534645080566,-0.43335050344467163
1784821991602500000,5.8775,9.541193008422852,2.935291290283203,-0.43335050344467163
1784821991612499200,5.887499267578125,9.366415977478027,2.959233283996582,-0.47644615173339844
1784821991622499300,5.897499267578125,9.304166793823242,2.9903578758239746,-0.545877993106842
1784821991632499200,5.907499267578125,9.375992774963379,2.896984100341797,-0.7086837291717529
1784821991642499300,5.917499267578125,9.560346603393555,2.827552318572998,-0.7589619159698486
1784821991652499200,5.927499267578125,9.493309020996094,2.786850690841675,-0.689530074596405
1784821991662499300,5.937499267578125,9.3735990524292,2.829946517944336,-0.6727706789970398
1784821991672499200,5.947499267578125,9.268254280090332,2.8993782997131348,-0.7110779285430908
1784821991682499300,5.957499267578125,9.217975616455078,2.8371291160583496,-0.7350199222564697
1784821991692499200,5.967499267578125,9.1940336227417,2.7222073078155518,-0.7757213711738586
1784821991702499300,5.977499267578125,9.141361236572266,2.669534921646118,-0.8810662031173706
1784821991712500200,5.987500244140625,9.10066032409668,2.7461493015289307,-1.0606313943862915
1784821991722500000,5.9975,9.093477249145508,2.7748796939849854,-1.1540051698684692
1784821991732500200,6.007500244140625,9.016862869262695,2.7509377002716064,-1.048660397529602
1784821991742500000,6.0175,9.026439666748047,2.7126305103302,-0.9050082564353943
1784821991752500200,6.027500244140625,9.117419242858887,2.695871114730835,-0.828393816947937
1784821991762500000,6.0375,9.241917610168457,2.693476915359497,-0.6392518281936646
1784821991772500200,6.047500244140625,9.38556957244873,2.6360161304473877,-0.5578489899635315
1784821991782500000,6.0575,9.431059837341309,2.580949544906616,-0.5123591423034668
1784821991792500200,6.067500244140625,9.411906242370605,2.6384103298187256,-0.49799394607543945
1784821991802500000,6.0775,9.325715065002441,2.7126305103302,-0.40940847992897034
1784821991812499200,6.087499267578125,9.275436401367188,2.8155810832977295,-0.31603461503982544
1784821991822499300,6.097499267578125,9.263465881347656,2.8826189041137695,-0.047884032130241394
1784821991832499200,6.107499267578125,9.182063102722168,2.9448680877685547,0.24181437492370605
1784821991842499300,6.117499267578125,9.237129211425781,3.0142998695373535,0.35673606395721436
1784821991852499200,6.127499267578125,9.256282806396484,3.0526070594787598,0.3878606855869293
1784821991862499300,6.137499267578125,9.189245223999023,3.090914487838745,0.3208230137825012
1784821991872498400,6.14749853515625,9.10305404663086,3.117250680923462,0.24420857429504395
1784821991882498300,6.157498291015625,9.028834342956543,3.090914487838745,0.19153612852096558
1784821991892498400,6.16749853515625,8.980949401855469,3.064578056335449,0.14604631066322327
1784821991902498300,6.177498291015625,8.928277015686035,3.021482467651367,0.15322890877723694
1784821991912499200,6.187499267578125,9.033622741699219,3.0119056701660156,0.1867477297782898
1784821991922499300,6.197499267578125,9.196428298950195,3.021482467651367,0.17717093229293823
1784821991932499200,6.207499267578125,9.361627578735352,2.9879636764526367,0.19632454216480255
1784821991942499300,6.217499267578125,9.459790229797363,2.9664158821105957,0.24420857429504395
1784821991952499200,6.227499267578125,9.634567260742188,2.956839084625244,0.26815059781074524
1784821991962499300,6.237499267578125,9.806949615478516,2.9161376953125,0.2753331959247589
1784821991972499200,6.247499267578125,9.83568000793457,2.8586769104003906,0.3471592366695404
1784821991982499300,6.257499267578125,9.83807373046875,2.892195701599121,0.33997663855552673
1784821991992499200,6.267499267578125,9.80455493927002,2.9664158821105957,0.24899697303771973
1784821992002499300,6.277499267578125,9.675268173217773,3.0095114707946777,0.26575639843940735
1784821992012498400,6.28749853515625,9.581894874572754,3.0550012588500977,0.272938996553421
1784821992032498400,6.30749853515625,9.404723167419434,3.0310592651367188,0.24420857429504395
1784821992042498300,6.317498291015625,9.270648002624512,2.9951462745666504,0.2298433631658554
1784821992052498400,6.32749853515625,9.150938034057617,3.071760892868042,0.1867477297782898
1784821992062498300,6.337498291015625,9.052776336669922,3.141192674636841,0.26815059781074524
1784821992072498400,6.34749853515625,9.105448722839355,3.2154128551483154,0.4572925269603729
1784821992082498300,6.357498291015625,9.308955192565918,3.2632968425750732,0.5602431893348694
1784821992092498400,6.36749853515625,9.495702743530273,3.19865345954895,0.569819986820221
1784821992102498300,6.377498291015625,9.639355659484863,3.222595453262329,0.45489832758903503
1784821992112499200,6.387499267578125,9.514857292175293,3.3303346633911133,0.3495534360408783
1784821992122499300,6.397499267578125,9.304166793823242,3.383007049560547,0.2753331959247589
1784821992132499200,6.407499267578125,9.050381660461426,3.3470940589904785,0.2968810200691223
1784821992142499300,6.417499267578125,8.83011531829834,3.3303346633911133,0.29209262132644653
1784821992152499200,6.427499267578125,8.760683059692383,3.3207578659057617,0.24420857429504395
1784821992162499300,6.437499267578125,8.765471458435059,3.313575267791748,0.26096799969673157
1784821992172499200,6.447499267578125,8.89954662322998,3.31118106842041,0.2825157940387726
1784821992182499300,6.457499267578125,9.105448722839355,3.3734302520751953,0.24420857429504395
1784821992192499200,6.467499267578125,9.244312286376953,3.3494882583618164,0.2753331959247589
1784821992202499300,6.477499267578125,9.340080261230469,3.3016040325164795,0.33279404044151306
1784821992212498400,6.48749853515625,9.414299964904785,3.3279404640197754,0.4141969084739685
1784821992222498300,6.497498291015625,9.435848236083984,3.3303346633911133,0.33518823981285095
1784821992232498400,6.50749853515625,9.28261947631836,3.35667085647583,0.21308395266532898
1784821992242498300,6.517498291015625,9.07911205291748,3.4117374420166016,0.06464344263076782
1784821992252498400,6.52749853515625,8.882787704467773,3.4548330307006836,-0.047884032130241394
1784821992262498300,6.537498291015625,8.751106262207031,3.469198226928711,-0.07661445438861847
1784821992272498400,6.54749853515625,8.851662635803223,3.5242648124694824,0.011971008032560349
1784821992282498300,6.557498291015625,8.947430610656738,3.531447410583496,0.1149216815829277
1784821992292498400,6.56749853515625,8.968978881835938,3.426102638244629,0.2298433631658554
1784821992302498300,6.577498291015625,8.89954662322998,3.442862033843994,0.2346317619085312
1784821992312499200,6.587499267578125,8.964190483093262,3.531447410583496,0.17477671802043915
1784821992322499300,6.597499267578125,9.04319953918457,3.5625722408294678,0.10534487664699554
1784821992332499200,6.607499267578125,9.098265647888184,3.5721490383148193,0.06464344263076782
1784821992342499300,6.617499267578125,9.095871925354004,3.6104562282562256,-0.002394201699644327
1784821992352499200,6.627499267578125,9.052776336669922,3.6320040225982666,-0.0071826050989329815
1784821992362499300,6.637499267578125,8.961795806884766,3.6559460163116455,-0.021547814831137657
1784821992372499200,6.647499267578125,8.995314598083496,3.6727054119110107,0.023942016065120697
1784821992382499300,6.657499267578125,8.95461368560791,3.7181951999664307,0.10534487664699554
1784821992392499200,6.667499267578125,8.913911819458008,3.7181951999664307,0.1388636976480484
1784821992402499300,6.677499267578125,8.918700218200684,3.7229835987091064,0.08379705995321274
1784821992412498400,6.68749853515625,8.889969825744629,3.708618402481079,0.004788403399288654
1784821992422498300,6.697498291015625,8.89954662322998,3.734954595565796,-0.016759412363171577
1784821992432498400,6.70749853515625,8.971372604370117,3.7493197917938232,-0.05506663769483566
1784821992442498300,6.717498291015625,8.978555679321289,3.6727054119110107,-0.07422025501728058
1784821992452498400,6.72749853515625,8.976161003112793,3.627215623855591,-0.09576806426048279
1784821992462498300,6.737498291015625,9.024045944213867,3.665522813796997,-0.0694318488240242
1784821992472498400,6.74749853515625,9.091083526611328,3.627215623855591,-0.0071826050989329815
1784821992482498300,6.757498291015625,9.237129211425781,3.6343982219696045,-0.011971008032560349
1784821992492498400,6.76749853515625,9.323320388793945,3.6320040225982666,-0.033518824726343155
1784821992502498300,6.777498291015625,9.26107120513916,3.6176388263702393,-0.004788403399288654
1784821992512499200,6.787499267578125,9.239523887634277,3.6176388263702393,-0.014365210197865963
1784821992522499300,6.797499267578125,9.306561470031738,3.6607344150543213,-0.09816227108240128
1784821992532499200,6.807499267578125,9.299378395080566,3.600879430770874,-0.05267243832349777
1784821992542499300,6.817499267578125,9.234735488891602,3.6104562282562256,0.040701430290937424
1784821992552499200,6.827499267578125,9.165303230285645,3.627215623855591,0.12689268589019775
1784821992562499300,6.837499267578125,9.117419242858887,3.6535518169403076,0.14365209639072418
1784821992572499200,6.847499267578125,9.229947090148926,3.6750996112823486,0.15322890877723694
1784821992582499300,6.857499267578125,9.416694641113281,3.600879430770874,0.1604115068912506
1784821992592499200,6.867499267578125,9.481337547302246,3.555389642715454,0.1604115068912506
1784821992602499300,6.877499267578125,9.397541046142578,3.600879430770874,0.08140286058187485
1784821992612498400,6.88749853515625,9.301773071289062,3.6990416049957275,-0.019153613597154617
1784821992622498300,6.897498291015625,9.155726432800293,3.7205893993377686,-0.040701430290937424
1784821992632498400,6.90749853515625,9.019257545471191,3.7253777980804443,-0.019153613597154617
1784821992642498300,6.917498291015625,8.839692115783691,3.780444383621216,0.05746084079146385
1784821992652498400,6.92749853515625,8.748712539672852,3.7924153804779053,0.11013327538967133
1784821992662498300,6.937498291015625,8.839692115783691,3.754108190536499,0.09576806426048279
1784821992672498400,6.94749853515625,8.83250904083252,3.7636849880218506,0.08140286058187485
1784821992682498300,6.957498291015625,8.736741065979004,3.663128614425659,-0.12449848651885986
1784821992692498400,6.96749853515625,8.758289337158203,3.6511576175689697,-0.3974374830722809
1784821992702498600,6.97749853515625,8.942642211914062,3.600879430770874,-0.48602294921875
1784821992712499200,6.987499267578125,9.050381660461426,3.6343982219696045,-0.4884171485900879
1784821992722499300,6.997499267578125,9.13417911529541,3.6535518169403076,-0.3208230137825012
1784821992732499200,7.007499267578125,9.19163990020752,3.5960910320281982,-0.10295066982507706
1784821992742499300,7.017499267578125,9.217975616455078,3.5170822143554688,-0.004788403399288654
1784821992752499200,7.027499267578125,9.222764015197754,3.44765043258667,-0.08858546614646912
1784821992762499300,7.037499267578125,9.337685585021973,3.332728862762451,-0.2753331959247589
1784821992772499200,7.047499267578125,9.502885818481445,3.315969467163086,-0.3974374830722809
1784821992782499300,7.057499267578125,9.569923400878906,3.4308910369873047,-0.47165772318840027
